Folder: phd-thesis/ISoD/xrd_data (part 13)

File: HSC073_range_1.xy
2.00000 6.000
2.21000 1.000
2.42000 5.000
2.63000 2.000
2.84000 6.000
3.05000 3.000
3.26000 62.000
3.47000 206.000
3.68000 224.000
3.89000 231.000
4.10000 245.000
4.31000 266.000
4.52000 257.000
4.73000 277.000
4.94000 281.000
5.15000 307.000
5.36000 302.000
5.57000 347.000
5.78000 308.000
5.99000 340.000
6.20000 343.000
6.41000 352.000
6.62000 362.000
6.83000 371.000
7.04000 393.000
7.25000 360.000
7.46000 400.000
7.67000 368.000
7.88000 382.000
8.09000 373.000
8.30000 416.000
8.51000 433.000
8.72000 393.000
8.93000 390.000
9.14000 396.000
9.35000 430.000
9.56000 431.000
9.77000 388.000
9.98000 441.000
10.19000 416.000
10.40000 402.000
10.61000 399.000
10.82000 424.000
11.03000 392.000
11.24000 458.000
11.45000 424.000
11.66000 439.000
11.87000 424.000
12.08000 439.000
12.29000 444.000
12.50000 460.000
12.71000 422.000
12.92000 454.000
13.13000 439.000
13.34000 484.000
13.55000 475.000
13.76000 477.000
13.97000 456.000
14.18000 501.000
14.39000 491.000
14.60000 475.000
14.81000 465.000
15.02000 470.000
15.23000 478.000
15.44000 476.000
15.65000 515.000
15.86000 463.000
16.07000 474.000
16.28000 467.000
16.49000 510.000
16.70000 468.000
16.91000 481.000
17.12000 484.000
17.33000 527.000
17.54000 477.000
17.75000 512.000
17.96000 496.000
18.17000 532.000
18.38000 528.000
18.59000 500.000
18.80000 520.000
19.01000 544.000
19.22000 539.000
19.43000 542.000
19.64000 506.000
19.85000 502.000
20.06000 525.000
20.27000 551.000
20.48000 513.000
20.69000 528.000
20.90000 505.000
21.11000 498.000
21.32000 570.000
21.53000 507.000
21.74000 572.000
21.95000 513.000
22.16000 536.000
22.37000 502.000
22.58000 548.000
22.79000 545.000
23.00000 507.000
23.21000 506.000
23.42000 535.000
23.63000 493.000
23.84000 492.000
24.05000 523.000
24.26000 530.000
24.47000 491.000
24.68000 505.000
24.89000 491.000
25.10000 471.000
25.31000 492.000
25.52000 499.000
25.73000 478.000
25.94000 476.000
26.15000 451.000
26.36000 467.000
26.57000 441.000
26.78000 444.000
26.99000 437.000
27.20000 452.000
27.41000 403.000
27.62000 386.000
27.83000 401.000
28.04000 415.000
28.25000 386.000
28.46000 402.000
28.67000 394.000
28.88000 382.000
29.09000 380.000
29.30000 410.000
29.51000 410.000
29.72000 411.000
29.93000 373.000
30.14000 371.000
30.35000 377.000
30.56000 337.000
30.77000 348.000
30.98000 365.000
31.19000 342.000
31.40000 335.000
31.61000 350.000
31.82000 341.000
32.03000 320.000
32.24000 315.000
32.45000 313.000
32.66000 292.000
32.87000 300.000
33.08000 289.000
33.29000 266.000
33.50000 284.000
33.71000 299.000
33.92000 265.000
34.13000 265.000
34.34000 288.000
34.55000 255.000
34.76000 260.000
34.97000 254.000
35.18000 243.000
35.39000 273.000
35.60000 239.000
35.81000 242.000
36.02000 241.000
36.23000 242.000
36.44000 228.000
36.65000 227.000
36.86000 218.000
37.07000 193.000
37.28000 185.000
37.49000 207.000
37.70000 201.000
37.91000 199.000
38.12000 195.000
38.33000 196.000
38.54000 189.000
38.75000 226.000
38.96000 197.000
39.17000 213.000
39.38000 204.000
39.59000 197.000
39.80000 176.000
40.01000 186.000
40.22000 196.000
40.43000 189.000
40.64000 206.000
40.85000 172.000
41.06000 187.000
41.27000 171.000
41.48000 176.000
41.69000 182.000
41.90000 175.000
42.11000 172.000
42.32000 182.000
42.53000 164.000
42.74000 187.000
42.95000 168.000
43.16000 165.000
43.37000 179.000
43.58000 183.000
43.79000 158.000
44.00000 172.000
44.21000 164.000
44.42000 161.000
44.63000 175.000
44.84000 163.000
45.05000 158.000
45.26000 157.000
45.47000 164.000
45.68000 167.000
45.89000 146.000
46.10000 157.000
46.31000 152.000
46.52000 160.000
46.73000 155.000
46.94000 154.000
47.15000 145.000
47.36000 166.000
47.57000 157.000
47.78000 159.000
47.99000 156.000
48.20000 142.000
48.41000 159.000
48.62000 145.000
48.83000 153.000
49.04000 165.000
49.25000 158.000
49.46000 156.000
49.67000 139.000
49.88000 155.000
50.09000 151.000
50.30000 146.000
50.51000 125.000
50.72000 130.000
50.93000 147.000
51.14000 124.000
51.35000 134.000
51.56000 123.000
51.77000 144.000
51.98000 130.000
52.19000 127.000
52.40000 132.000
52.61000 127.000
52.82000 132.000
53.03000 158.000
53.24000 133.000
53.45000 132.000
53.66000 149.000
53.87000 115.000
54.08000 119.000
54.29000 112.000
54.50000 128.000
54.71000 127.000
54.92000 119.000
55.13000 131.000
55.34000 136.000
55.55000 142.000
55.76000 140.000
55.97000 114.000
56.18000 121.000
56.39000 143.000
56.60000 135.000
56.81000 150.000
57.02000 142.000
57.23000 127.000
57.44000 127.000
57.65000 135.000
57.86000 129.000
58.07000 133.000
58.28000 119.000
58.49000 120.000
58.70000 109.000
58.91000 113.000
59.12000 113.000
59.33000 95.000
59.54000 127.000
59.75000 127.000
59.96000 122.000
60.17000 113.000
60.38000 116.000
60.59000 106.000
60.80000 124.000
61.01000 122.000
61.22000 110.000
61.43000 122.000
61.64000 112.000
61.85000 112.000
61.98500 98.000

File: HSC073_ranges_combined.xy
2.0 9.0
2.21 3.0
2.42 10.0
2.63 3.0
2.84 10.0
3.05 10.0
3.26 118.0
3.47 432.0
3.68 433.0
3.89 460.0
4.1 527.0
4.31 520.0
4.52 525.0
4.73 562.0
4.94 586.0
5.15 645.0
5.36 619.0
5.57 692.0
5.78 641.0
5.99 704.0
6.2 693.0
6.41 719.0
6.62 772.0
6.83 780.0
7.04 792.0
7.25 736.0
7.46 779.0
7.67 745.0
7.88 787.0
8.09 776.0
8.3 809.0
8.51 859.0
8.72 792.0
8.93 815.0
9.14 816.0
9.35 837.0
9.56 847.0
9.77 792.0
9.98 846.0
10.19 843.0
10.4 840.0
10.61 839.0
10.82 836.0
11.03 831.0
11.24 897.0
11.45 877.0
11.66 880.0
11.87 869.0
12.08 904.0
12.29 871.0
12.5 896.0
12.71 868.0
12.92 916.0
13.13 863.0
13.34 932.0
13.55 925.0
13.76 943.0
13.97 925.0
14.18 982.0
14.39 1012.0
14.6 939.0
14.81 947.0
15.02 947.0
15.23 966.0
15.44 932.0
15.65 1020.0
15.86 920.0
16.07 970.0
16.28 937.0
16.49 1005.0
16.7 950.0
16.91 987.0
17.12 980.0
17.33 1010.0
17.54 988.0
17.75 1032.0
17.96 987.0
18.17 1045.0
18.38 1015.0
18.59 1029.0
18.8 1060.0
19.01 1058.0
19.22 1031.0
19.43 1057.0
19.64 1017.0
19.85 981.0
20.06 1071.0
20.27 1086.0
20.48 1040.0
20.69 1038.0
20.9 1049.0
21.11 1022.0
21.32 1106.0
21.53 1003.0
21.74 1090.0
21.95 1081.0
22.16 1072.0
22.37 1055.0
22.58 1078.0
22.79 1064.0
23.0 1032.0
23.21 1038.0
23.42 1050.0
23.63 1018.0
23.84 1026.0
24.05 1018.0
24.26 1028.0
24.47 966.0
24.68 1005.0
24.89 951.0
25.1 974.0
25.31 1016.0
25.52 993.0
25.73 974.0
25.94 1009.0
26.15 918.0
26.36 936.0
26.57 907.0
26.78 895.0
26.99 873.0
27.2 899.0
27.41 817.0
27.62 824.0
27.83 780.0
28.04 814.0
28.25 801.0
28.46 793.0
28.67 812.0
28.88 782.0
29.09 802.0
29.3 820.0
29.51 808.0
29.72 809.0
29.93 760.0
30.14 741.0
30.35 735.0
30.56 717.0
30.77 717.0
30.98 712.0
31.19 699.0
31.4 675.0
31.61 696.0
31.82 681.0
32.03 644.0
32.24 654.0
32.45 604.0
32.66 583.0
32.87 590.0
33.08 563.0
33.29 536.0
33.5 567.0
33.71 586.0
33.92 543.0
34.13 539.0
34.34 570.0
34.55 513.0
34.76 530.0
34.97 501.0
35.18 487.0
35.39 508.0
35.6 504.0
35.81 485.0
36.02 483.0
36.23 471.0
36.44 451.0
36.65 463.0
36.86 438.0
37.07 416.0
37.28 409.0
37.49 400.0
37.7 419.0
37.91 390.0
38.12 405.0
38.33 375.0
38.54 403.0
38.75 428.0
38.96 408.0
39.17 415.0
39.38 402.0
39.59 387.0
39.8 364.0
40.01 373.0
40.22 411.0
40.43 392.0
40.64 390.0
40.85 357.0
41.06 375.0
41.27 348.0
41.48 359.0
41.69 390.0
41.9 364.0
42.11 347.0
42.32 375.0
42.53 330.0
42.74 368.0
42.95 346.0
43.16 332.0
43.37 357.0
43.58 369.0
43.79 343.0
44.0 341.0
44.21 352.0
44.42 339.0
44.63 348.0
44.84 323.0
45.05 318.0
45.26 337.0
45.47 345.0
45.68 337.0
45.89 330.0
46.1 327.0
46.31 315.0
46.52 325.0
46.73 324.0
46.94 326.0
47.15 295.0
47.36 309.0
47.57 321.0
47.78 329.0
47.99 309.0
48.2 291.0
48.41 321.0
48.62 298.0
48.83 312.0
49.04 315.0
49.25 314.0
49.46 303.0
49.67 278.0
49.88 308.0
50.09 299.0
50.3 286.0
50.51 275.0
50.72 279.0
50.93 294.0
51.14 264.0
51.35 287.0
51.56 276.0
51.77 296.0
51.98 274.0
52.19 258.0
52.4 271.0
52.61 266.0
52.82 275.0
53.03 301.0
53.24 267.0
53.45 264.0
53.66 280.0
53.87 245.0
54.08 248.0
54.29 257.0
54.5 249.0
54.71 272.0
54.92 243.0
55.13 259.0
55.34 281.0
55.55 275.0
55.76 263.0
55.97 251.0
56.18 245.0
56.39 288.0
56.6 272.0
56.81 272.0
57.02 268.0
57.23 252.0
57.44 257.0
57.65 261.0
57.86 246.0
58.07 260.0
58.28 242.0
58.49 240.0
58.7 245.0
58.91 246.0
59.12 237.0
59.33 220.0
59.54 243.0
59.75 230.0
59.96 258.0
60.17 224.0
60.38 260.0
60.59 221.0
60.8 250.0
61.01 244.0
61.22 227.0
61.43 243.0
61.64 236.0
61.85 229.0
61.985 224.0

File: HSC074.xy
2.00000 76.000
2.21000 78.000
2.42000 102.000
2.63000 106.000
2.84000 59.000
3.05000 50.000
3.26000 58.000
3.47000 42.000
3.68000 89.000
3.89000 255.000
4.10000 266.000
4.31000 237.000
4.52000 245.000
4.73000 273.000
4.94000 247.000
5.15000 274.000
5.36000 273.000
5.57000 289.000
5.78000 301.000
5.99000 302.000
6.20000 368.000
6.41000 337.000
6.62000 292.000
6.83000 269.000
7.04000 284.000
7.25000 278.000
7.46000 280.000
7.67000 315.000
7.88000 277.000
8.09000 330.000
8.30000 341.000
8.51000 342.000
8.72000 327.000
8.93000 304.000
9.14000 331.000
9.35000 316.000
9.56000 306.000
9.77000 357.000
9.98000 355.000
10.19000 412.000
10.40000 369.000
10.61000 388.000
10.82000 371.000
11.03000 411.000
11.24000 380.000
11.45000 366.000
11.66000 398.000
11.87000 619.000
12.08000 1507.000
12.29000 519.000
12.50000 438.000
12.71000 360.000
12.92000 341.000
13.13000 344.000
13.34000 325.000
13.55000 329.000
13.76000 315.000
13.97000 320.000
14.18000 317.000
14.39000 345.000
14.60000 316.000
14.81000 316.000
15.02000 333.000
15.23000 328.000
15.44000 323.000
15.65000 351.000
15.86000 316.000
16.07000 321.000
16.28000 324.000
16.49000 353.000
16.70000 353.000
16.91000 335.000
17.12000 363.000
17.33000 340.000
17.54000 359.000
17.75000 363.000
17.96000 371.000
18.17000 367.000
18.38000 372.000
18.59000 359.000
18.80000 364.000
19.01000 384.000
19.22000 348.000
19.43000 352.000
19.64000 357.000
19.85000 364.000
20.06000 373.000
20.27000 342.000
20.48000 363.000
20.69000 442.000
20.90000 1104.000
21.11000 1024.000
21.32000 400.000
21.53000 405.000
21.74000 385.000
21.95000 359.000
22.16000 373.000
22.37000 361.000
22.58000 343.000
22.79000 378.000
23.00000 342.000
23.21000 382.000
23.42000 379.000
23.63000 384.000
23.84000 417.000
24.05000 457.000
24.26000 971.000
24.47000 573.000
24.68000 686.000
24.89000 793.000
25.10000 548.000
25.31000 518.000
25.52000 483.000
25.73000 483.000
25.94000 515.000
26.15000 1052.000
26.36000 3625.000
26.57000 1390.000
26.78000 846.000
26.99000 729.000
27.20000 647.000
27.41000 598.000
27.62000 623.000
27.83000 571.000
28.04000 607.000
28.25000 530.000
28.46000 538.000
28.67000 628.000
28.88000 1412.000
29.09000 2827.000
29.30000 1280.000
29.51000 663.000
29.72000 491.000
29.93000 452.000
30.14000 349.000
30.35000 358.000
30.56000 341.000
30.77000 334.000
30.98000 342.000
31.19000 327.000
31.40000 295.000
31.61000 325.000
31.82000 325.000
32.03000 373.000
32.24000 884.000
32.45000 851.000
32.66000 382.000
32.87000 291.000
33.08000 293.000
33.29000 284.000
33.50000 294.000
33.71000 336.000
33.92000 377.000
34.13000 307.000
34.34000 290.000
34.55000 287.000
34.76000 288.000
34.97000 337.000
35.18000 279.000
35.39000 265.000
35.60000 244.000
35.81000 286.000
36.02000 322.000
36.23000 366.000
36.44000 258.000
36.65000 254.000
36.86000 285.000
37.07000 227.000
37.28000 225.000
37.49000 223.000
37.70000 193.000
37.91000 218.000
38.12000 193.000
38.33000 198.000
38.54000 204.000
38.75000 199.000
38.96000 187.000
39.17000 199.000
39.38000 198.000
39.59000 182.000
39.80000 188.000
40.01000 197.000
40.22000 200.000
40.43000 174.000
40.64000 190.000
40.85000 175.000
41.06000 170.000
41.27000 184.000
41.48000 181.000
41.69000 196.000
41.90000 206.000
42.11000 209.000
42.32000 208.000
42.53000 252.000
42.74000 393.000
42.95000 242.000
43.16000 211.000
43.37000 204.000
43.58000 224.000
43.79000 209.000
44.00000 203.000
44.21000 246.000
44.42000 290.000
44.63000 446.000
44.84000 413.000
45.05000 322.000
45.26000 258.000
45.47000 246.000
45.68000 294.000
45.89000 301.000
46.10000 245.000
46.31000 232.000
46.52000 258.000
46.73000 303.000
46.94000 241.000
47.15000 196.000
47.36000 184.000
47.57000 159.000
47.78000 169.000
47.99000 151.000
48.20000 163.000
48.41000 172.000
48.62000 185.000
48.83000 175.000
49.04000 171.000
49.25000 179.000
49.46000 166.000
49.67000 196.000
49.88000 215.000
50.09000 185.000
50.30000 204.000
50.51000 255.000
50.72000 328.000
50.93000 480.000
51.14000 382.000
51.35000 256.000
51.56000 210.000
51.77000 179.000
51.98000 174.000
52.19000 179.000
52.40000 173.000
52.61000 193.000
52.82000 174.000
53.03000 144.000
53.24000 169.000
53.45000 159.000
53.66000 205.000
53.87000 208.000
54.08000 292.000
54.29000 343.000
54.50000 353.000
54.71000 348.000
54.92000 199.000
55.13000 161.000
55.34000 181.000
55.55000 161.000
55.76000 152.000
55.97000 163.000
56.18000 170.000
56.39000 159.000
56.60000 144.000
56.81000 156.000
57.02000 138.000
57.23000 152.000
57.44000 179.000
57.65000 169.000
57.86000 138.000
58.07000 161.000
58.28000 150.000
58.49000 171.000
58.70000 172.000
58.91000 157.000
59.12000 170.000
59.33000 178.000
59.54000 148.000
59.75000 165.000
59.96000 172.000
60.17000 163.000
60.38000 159.000
60.59000 153.000
60.80000 141.000
61.01000 152.000
61.22000 149.000
61.43000 142.000
61.64000 144.000
61.85000 143.000
61.98500 146.000

File: HSC074_nPC.xy
2.00000 4.000
2.21000 4.000
2.42000 4.000
2.63000 11.000
2.84000 9.000
3.05000 4.000
3.26000 948.000
3.47000 2031.000
3.68000 1780.000
3.89000 1646.000
4.10000 1551.000
4.31000 1379.000
4.52000 1280.000
4.73000 1257.000
4.94000 1151.000
5.15000 1074.000
5.36000 1015.000
5.57000 952.000
5.78000 912.000
5.99000 896.000
6.20000 939.000
6.41000 822.000
6.62000 821.000
6.83000 779.000
7.04000 756.000
7.25000 746.000
7.46000 704.000
7.67000 717.000
7.88000 690.000
8.09000 717.000
8.30000 678.000
8.51000 683.000
8.72000 664.000
8.93000 695.000
9.14000 615.000
9.35000 636.000
9.56000 648.000
9.77000 660.000
9.98000 712.000
10.19000 689.000
10.40000 686.000
10.61000 726.000
10.82000 723.000
11.03000 822.000
11.24000 723.000
11.45000 697.000
11.66000 870.000
11.87000 1614.000
12.08000 2854.000
12.29000 962.000
12.50000 701.000
12.71000 694.000
12.92000 636.000
13.13000 638.000
13.34000 566.000
13.55000 609.000
13.76000 580.000
13.97000 593.000
14.18000 602.000
14.39000 596.000
14.60000 593.000
14.81000 591.000
15.02000 588.000
15.23000 609.000
15.44000 597.000
15.65000 565.000
15.86000 579.000
16.07000 572.000
16.28000 595.000
16.49000 622.000
16.70000 566.000
16.91000 618.000
17.12000 642.000
17.33000 676.000
17.54000 708.000
17.75000 702.000
17.96000 802.000
18.17000 775.000
18.38000 647.000
18.59000 668.000
18.80000 680.000
19.01000 661.000
19.22000 657.000
19.43000 644.000
19.64000 624.000
19.85000 632.000
20.06000 645.000
20.27000 620.000
20.48000 680.000
20.69000 766.000
20.90000 1331.000
21.11000 985.000
21.32000 705.000
21.53000 655.000
21.74000 656.000
21.95000 642.000
22.16000 653.000
22.37000 652.000
22.58000 631.000
22.79000 648.000
23.00000 653.000
23.21000 692.000
23.42000 655.000
23.63000 661.000
23.84000 684.000
24.05000 775.000
24.26000 1176.000
24.47000 961.000
24.68000 1021.000
24.89000 1137.000
25.10000 966.000
25.31000 898.000
25.52000 867.000
25.73000 835.000
25.94000 881.000
26.15000 894.000
26.36000 2046.000
26.57000 2212.000
26.78000 2145.000
26.99000 2044.000
27.20000 1906.000
27.41000 2026.000
27.62000 1953.000
27.83000 1605.000
28.04000 1550.000
28.25000 1164.000
28.46000 1012.000
28.67000 907.000
28.88000 1099.000
29.09000 2012.000
29.30000 1695.000
29.51000 1171.000
29.72000 978.000
29.93000 810.000
30.14000 731.000
30.35000 631.000
30.56000 650.000
30.77000 581.000
30.98000 629.000
31.19000 573.000
31.40000 576.000
31.61000 580.000
31.82000 631.000
32.03000 711.000
32.24000 1076.000
32.45000 854.000
32.66000 596.000
32.87000 533.000
33.08000 499.000
33.29000 552.000
33.50000 539.000
33.71000 549.000
33.92000 573.000
34.13000 555.000
34.34000 526.000
34.55000 520.000
34.76000 516.000
34.97000 553.000
35.18000 540.000
35.39000 521.000
35.60000 473.000
35.81000 499.000
36.02000 511.000
36.23000 492.000
36.44000 483.000
36.65000 489.000
36.86000 444.000
37.07000 461.000
37.28000 460.000
37.49000 436.000
37.70000 419.000
37.91000 466.000
38.12000 444.000
38.33000 418.000
38.54000 403.000
38.75000 438.000
38.96000 410.000
39.17000 429.000
39.38000 491.000
39.59000 472.000
39.80000 490.000
40.01000 482.000
40.22000 440.000
40.43000 425.000
40.64000 436.000
40.85000 429.000
41.06000 434.000
41.27000 409.000
41.48000 428.000
41.69000 416.000
41.90000 442.000
42.11000 445.000
42.32000 482.000
42.53000 528.000
42.74000 559.000
42.95000 471.000
43.16000 469.000
43.37000 453.000
43.58000 438.000
43.79000 440.000
44.00000 463.000
44.21000 546.000
44.42000 592.000
44.63000 723.000
44.84000 712.000
45.05000 621.000
45.26000 573.000
45.47000 500.000
45.68000 452.000
45.89000 456.000
46.10000 415.000
46.31000 403.000
46.52000 438.000
46.73000 416.000
46.94000 357.000
47.15000 385.000
47.36000 346.000
47.57000 347.000
47.78000 347.000
47.99000 338.000
48.20000 324.000
48.41000 314.000
48.62000 313.000
48.83000 320.000
49.04000 302.000
49.25000 340.000
49.46000 312.000
49.67000 332.000
49.88000 339.000
50.09000 323.000
50.30000 325.000
50.51000 382.000
50.72000 464.000
50.93000 463.000
51.14000 396.000
51.35000 351.000
51.56000 345.000
51.77000 304.000
51.98000 290.000
52.19000 322.000
52.40000 314.000
52.61000 306.000
52.82000 293.000
53.03000 308.000
53.24000 308.000
53.45000 305.000
53.66000 307.000
53.87000 308.000
54.08000 340.000
54.29000 402.000
54.50000 490.000
54.71000 405.000
54.92000 339.000
55.13000 339.000
55.34000 341.000
55.55000 346.000
55.76000 347.000
55.97000 399.000
56.18000 349.000
56.39000 374.000
56.60000 358.000
56.81000 351.000
57.02000 355.000
57.23000 338.000
57.44000 323.000
57.65000 319.000
57.86000 315.000
58.07000 310.000
58.28000 293.000
58.49000 293.000
58.70000 298.000
58.91000 287.000
59.12000 298.000
59.33000 271.000
59.54000 274.000
59.75000 288.000
59.96000 293.000
60.17000 260.000
60.38000 275.000
60.59000 277.000
60.80000 266.000
61.01000 276.000
61.22000 267.000
61.43000 273.000
61.64000 291.000
61.85000 258.000
61.98500 254.000

File: HSC0075.xy
2.00000	5694.000
2.21000	5174.000
2.42000	6824.000
2.63000	4040.000
2.84000	5219.000
3.05000	3293.000
3.26000	2956.000
3.47000	2682.000
3.68000	2508.000
3.89000	2467.000
4.10000	2347.000
4.31000	2209.000
4.52000	2069.000
4.73000	1947.000
4.94000	1930.000
5.15000	2082.000
5.36000	1747.000
5.57000	1726.000
5.78000	1583.000
5.99000	1924.000
6.20000	2280.000
6.41000	1631.000
6.62000	1367.000
6.83000	1271.000
7.04000	1236.000
7.25000	1245.000
7.46000	1163.000
7.67000	1202.000
7.88000	1151.000
8.09000	1058.000
8.30000	1089.000
8.51000	1571.000
8.72000	1254.000
8.93000	1110.000
9.14000	973.000
9.35000	954.000
9.56000	923.000
9.77000	963.000
9.98000	1052.000
10.19000	1388.000
10.40000	1581.000
10.61000	1262.000
10.82000	1123.000
11.03000	1320.000
11.24000	803.000
11.45000	719.000
11.66000	729.000
11.87000	716.000
12.08000	697.000
12.29000	706.000
12.50000	780.000
12.71000	699.000
12.92000	665.000
13.13000	633.000
13.34000	665.000
13.55000	643.000
13.76000	588.000
13.97000	610.000
14.18000	645.000
14.39000	620.000
14.60000	578.000
14.81000	611.000
15.02000	674.000
15.23000	593.000
15.44000	570.000
15.65000	570.000
15.86000	553.000
16.07000	563.000
16.28000	546.000
16.49000	568.000
16.70000	550.000
16.91000	564.000
17.12000	530.000
17.33000	608.000
17.54000	709.000
17.75000	621.000
17.96000	643.000
18.17000	563.000
18.38000	608.000
18.59000	746.000
18.80000	1022.000
19.01000	926.000
19.22000	902.000
19.43000	601.000
19.64000	498.000
19.85000	504.000
20.06000	479.000
20.27000	496.000
20.48000	538.000
20.69000	521.000
20.90000	550.000
21.11000	565.000
21.32000	496.000
21.53000	497.000
21.74000	457.000
21.95000	478.000
22.16000	481.000
22.37000	483.000
22.58000	472.000
22.79000	475.000
23.00000	486.000
23.21000	520.000
23.42000	504.000
23.63000	474.000
23.84000	508.000
24.05000	475.000
24.26000	507.000
24.47000	715.000
24.68000	574.000
24.89000	686.000
25.10000	902.000
25.31000	871.000
25.52000	1076.000
25.73000	1051.000
25.94000	859.000
26.15000	830.000
26.36000	737.000
26.57000	1355.000
26.78000	735.000
26.99000	686.000
27.20000	757.000
27.41000	895.000
27.62000	1822.000
27.83000	1425.000
28.04000	1881.000
28.25000	1367.000
28.46000	810.000
28.67000	657.000
28.88000	577.000
29.09000	560.000
29.30000	503.000
29.51000	520.000
29.72000	477.000
29.93000	499.000
30.14000	479.000
30.35000	537.000
30.56000	444.000
30.77000	390.000
30.98000	429.000
31.19000	399.000
31.40000	381.000
31.61000	453.000
31.82000	380.000
32.03000	415.000
32.24000	360.000
32.45000	350.000
32.66000	445.000
32.87000	356.000
33.08000	397.000
33.29000	346.000
33.50000	323.000
33.71000	397.000
33.92000	362.000
34.13000	326.000
34.34000	341.000
34.55000	300.000
34.76000	288.000
34.97000	292.000
35.18000	299.000
35.39000	314.000
35.60000	316.000
35.81000	500.000
36.02000	325.000
36.23000	306.000
36.44000	294.000
36.65000	282.000
36.86000	309.000
37.07000	320.000
37.28000	299.000
37.49000	322.000
37.70000	305.000
37.91000	287.000
38.12000	273.000
38.33000	295.000
38.54000	256.000
38.75000	323.000
38.96000	287.000
39.17000	267.000
39.38000	278.000
39.59000	270.000
39.80000	225.000
40.01000	242.000
40.22000	229.000
40.43000	226.000
40.64000	224.000
40.85000	280.000
41.06000	208.000
41.27000	214.000
41.48000	233.000
41.69000	229.000
41.90000	225.000
42.11000	207.000
42.32000	248.000
42.53000	257.000
42.74000	225.000
42.95000	223.000
43.16000	240.000
43.37000	237.000
43.58000	203.000
43.79000	211.000
44.00000	199.000
44.21000	229.000
44.42000	212.000
44.63000	204.000
44.84000	208.000
45.05000	217.000
45.26000	242.000
45.47000	246.000
45.68000	237.000
45.89000	222.000
46.10000	190.000
46.31000	238.000
46.52000	198.000
46.73000	189.000
46.94000	191.000
47.15000	206.000
47.36000	184.000
47.57000	226.000
47.78000	213.000
47.99000	224.000
48.20000	205.000
48.41000	210.000
48.62000	203.000
48.83000	191.000
49.04000	218.000
49.25000	206.000
49.46000	196.000
49.67000	189.000
49.88000	195.000
50.09000	192.000
50.30000	181.000
50.51000	199.000
50.72000	197.000
50.93000	190.000
51.14000	192.000
51.35000	169.000
51.56000	198.000
51.77000	190.000
51.98000	201.000
52.19000	179.000
52.40000	206.000
52.61000	183.000
52.82000	209.000
53.03000	202.000
53.24000	189.000
53.45000	221.000
53.66000	217.000
53.87000	199.000
54.08000	218.000
54.29000	207.000
54.50000	213.000
54.71000	206.000
54.92000	198.000
55.13000	184.000
55.34000	192.000
55.55000	202.000
55.76000	205.000
55.97000	201.000
56.18000	202.000
56.39000	176.000
56.60000	190.000
56.81000	171.000
57.02000	177.000
57.23000	175.000
57.44000	179.000
57.65000	179.000
57.86000	192.000
58.07000	186.000
58.28000	188.000
58.49000	210.000
58.70000	178.000
58.91000	169.000
59.12000	149.000
59.33000	157.000
59.54000	161.000
59.75000	144.000
59.96000	163.000
60.17000	154.000
60.38000	164.000
60.59000	166.000
60.80000	147.000
61.01000	144.000
61.22000	138.000
61.43000	167.000
61.64000	172.000
61.85000	145.000
61.98500	156.000