Folder: phd-thesis/ISoD/xrd_data (part 16)

File: HSC086.xy
2.00000 4.000
2.21000 9.000
2.42000 6.000
2.63000 1.000
2.84000 3.000
3.05000 4.000
3.26000 153.000
3.47000 514.000
3.68000 484.000
3.89000 440.000
4.10000 408.000
4.31000 396.000
4.52000 384.000
4.73000 412.000
4.94000 402.000
5.15000 429.000
5.36000 455.000
5.57000 495.000
5.78000 609.000
5.99000 969.000
6.20000 1403.000
6.41000 962.000
6.62000 569.000
6.83000 444.000
7.04000 469.000
7.25000 435.000
7.46000 482.000
7.67000 460.000
7.88000 462.000
8.09000 488.000
8.30000 565.000
8.51000 661.000
8.72000 776.000
8.93000 728.000
9.14000 554.000
9.35000 541.000
9.56000 630.000
9.77000 772.000
9.98000 1038.000
10.19000 1143.000
10.40000 1131.000
10.61000 883.000
10.82000 737.000
11.03000 716.000
11.24000 538.000
11.45000 539.000
11.66000 494.000
11.87000 529.000
12.08000 507.000
12.29000 477.000
12.50000 518.000
12.71000 558.000
12.92000 515.000
13.13000 482.000
13.34000 473.000
13.55000 481.000
13.76000 530.000
13.97000 505.000
14.18000 494.000
14.39000 514.000
14.60000 483.000
14.81000 489.000
15.02000 538.000
15.23000 509.000
15.44000 501.000
15.65000 507.000
15.86000 512.000
16.07000 530.000
16.28000 567.000
16.49000 503.000
16.70000 549.000
16.91000 584.000
17.12000 556.000
17.33000 597.000
17.54000 603.000
17.75000 622.000
17.96000 654.000
18.17000 682.000
18.38000 769.000
18.59000 921.000
18.80000 1140.000
19.01000 1050.000
19.22000 945.000
19.43000 769.000
19.64000 636.000
19.85000 600.000
20.06000 569.000
20.27000 580.000
20.48000 581.000
20.69000 541.000
20.90000 552.000
21.11000 596.000
21.32000 596.000
21.53000 563.000
21.74000 558.000
21.95000 556.000
22.16000 581.000
22.37000 592.000
22.58000 548.000
22.79000 558.000
23.00000 572.000
23.21000 606.000
23.42000 609.000
23.63000 624.000
23.84000 626.000
24.05000 604.000
24.26000 619.000
24.47000 760.000
24.68000 823.000
24.89000 926.000
25.10000 1114.000
25.31000 1148.000
25.52000 1221.000
25.73000 1198.000
25.94000 1208.000
26.15000 1104.000
26.36000 1077.000
26.57000 1095.000
26.78000 1019.000
26.99000 1033.000
27.20000 1153.000
27.41000 1382.000
27.62000 1659.000
27.83000 1961.000
28.04000 2057.000
28.25000 1484.000
28.46000 1222.000
28.67000 968.000
28.88000 890.000
29.09000 815.000
29.30000 704.000
29.51000 702.000
29.72000 669.000
29.93000 609.000
30.14000 647.000
30.35000 626.000
30.56000 596.000
30.77000 565.000
30.98000 576.000
31.19000 524.000
31.40000 516.000
31.61000 510.000
31.82000 520.000
32.03000 525.000
32.24000 542.000
32.45000 461.000
32.66000 556.000
32.87000 507.000
33.08000 486.000
33.29000 421.000
33.50000 402.000
33.71000 456.000
33.92000 430.000
34.13000 403.000
34.34000 411.000
34.55000 401.000
34.76000 390.000
34.97000 375.000
35.18000 417.000
35.39000 439.000
35.60000 441.000
35.81000 451.000
36.02000 455.000
36.23000 408.000
36.44000 435.000
36.65000 433.000
36.86000 429.000
37.07000 393.000
37.28000 407.000
37.49000 407.000
37.70000 378.000
37.91000 389.000
38.12000 380.000
38.33000 359.000
38.54000 375.000
38.75000 368.000
38.96000 410.000
39.17000 343.000
39.38000 367.000
39.59000 369.000
39.80000 317.000
40.01000 326.000
40.22000 316.000
40.43000 298.000
40.64000 321.000
40.85000 324.000
41.06000 310.000
41.27000 295.000
41.48000 312.000
41.69000 278.000
41.90000 298.000
42.11000 295.000
42.32000 298.000
42.53000 283.000
42.74000 278.000
42.95000 316.000
43.16000 284.000
43.37000 274.000
43.58000 265.000
43.79000 270.000
44.00000 264.000
44.21000 286.000
44.42000 265.000
44.63000 277.000
44.84000 282.000
45.05000 284.000
45.26000 257.000
45.47000 281.000
45.68000 275.000
45.89000 277.000
46.10000 276.000
46.31000 278.000
46.52000 274.000
46.73000 273.000
46.94000 258.000
47.15000 254.000
47.36000 250.000
47.57000 252.000
47.78000 262.000
47.99000 268.000
48.20000 251.000
48.41000 251.000
48.62000 255.000
48.83000 238.000
49.04000 269.000
49.25000 254.000
49.46000 254.000
49.67000 226.000
49.88000 246.000
50.09000 277.000
50.30000 235.000
50.51000 252.000
50.72000 243.000
50.93000 238.000
51.14000 242.000
51.35000 244.000
51.56000 240.000
51.77000 215.000
51.98000 256.000
52.19000 246.000
52.40000 263.000
52.61000 232.000
52.82000 235.000
53.03000 272.000
53.24000 266.000
53.45000 251.000
53.66000 265.000
53.87000 255.000
54.08000 247.000
54.29000 264.000
54.50000 265.000
54.71000 260.000
54.92000 237.000
55.13000 275.000
55.34000 274.000
55.55000 265.000
55.76000 245.000
55.97000 256.000
56.18000 252.000
56.39000 247.000
56.60000 267.000
56.81000 232.000
57.02000 253.000
57.23000 258.000
57.44000 246.000
57.65000 258.000
57.86000 270.000
58.07000 262.000
58.28000 218.000
58.49000 267.000
58.70000 227.000
58.91000 213.000
59.12000 231.000
59.33000 212.000
59.54000 222.000
59.75000 208.000
59.96000 195.000
60.17000 234.000
60.38000 202.000
60.59000 208.000
60.80000 209.000
61.01000 218.000
61.22000 194.000
61.43000 205.000
61.64000 202.000
61.85000 192.000
61.98500 200.000

File: HSC087.xy
2.00000 1.000
2.21000 1.000
2.42000 1.000
2.63000 5.000
2.84000 1.000
3.05000 1.000
3.26000 74.000
3.47000 151.000
3.68000 152.000
3.89000 154.000
4.10000 134.000
4.31000 148.000
4.52000 148.000
4.73000 165.000
4.94000 192.000
5.15000 185.000
5.36000 192.000
5.57000 191.000
5.78000 199.000
5.99000 282.000
6.20000 682.000
6.41000 496.000
6.62000 225.000
6.83000 180.000
7.04000 191.000
7.25000 196.000
7.46000 224.000
7.67000 203.000
7.88000 198.000
8.09000 225.000
8.30000 224.000
8.51000 209.000
8.72000 223.000
8.93000 244.000
9.14000 238.000
9.35000 229.000
9.56000 296.000
9.77000 419.000
9.98000 421.000
10.19000 534.000
10.40000 1007.000
10.61000 358.000
10.82000 243.000
11.03000 229.000
11.24000 230.000
11.45000 243.000
11.66000 229.000
11.87000 224.000
12.08000 259.000
12.29000 245.000
12.50000 394.000
12.71000 279.000
12.92000 295.000
13.13000 230.000
13.34000 219.000
13.55000 212.000
13.76000 216.000
13.97000 231.000
14.18000 231.000
14.39000 210.000
14.60000 230.000
14.81000 238.000
15.02000 347.000
15.23000 240.000
15.44000 253.000
15.65000 225.000
15.86000 218.000
16.07000 235.000
16.28000 233.000
16.49000 233.000
16.70000 248.000
16.91000 232.000
17.12000 306.000
17.33000 279.000
17.54000 277.000
17.75000 340.000
17.96000 415.000
18.17000 293.000
18.38000 279.000
18.59000 268.000
18.80000 398.000
19.01000 320.000
19.22000 605.000
19.43000 296.000
19.64000 262.000
19.85000 261.000
20.06000 239.000
20.27000 242.000
20.48000 231.000
20.69000 252.000
20.90000 251.000
21.11000 230.000
21.32000 244.000
21.53000 239.000
21.74000 217.000
21.95000 221.000
22.16000 232.000
22.37000 244.000
22.58000 226.000
22.79000 243.000
23.00000 242.000
23.21000 235.000
23.42000 260.000
23.63000 226.000
23.84000 251.000
24.05000 255.000
24.26000 303.000
24.47000 539.000
24.68000 374.000
24.89000 341.000
25.10000 558.000
25.31000 419.000
25.52000 536.000
25.73000 567.000
25.94000 480.000
26.15000 583.000
26.36000 520.000
26.57000 1226.000
26.78000 483.000
26.99000 437.000
27.20000 488.000
27.41000 490.000
27.62000 1419.000
27.83000 557.000
28.04000 564.000
28.25000 564.000
28.46000 520.000
28.67000 437.000
28.88000 373.000
29.09000 340.000
29.30000 350.000
29.51000 340.000
29.72000 343.000
29.93000 277.000
30.14000 282.000
30.35000 413.000
30.56000 432.000
30.77000 283.000
30.98000 355.000
31.19000 257.000
31.40000 245.000
31.61000 353.000
31.82000 234.000
32.03000 348.000
32.24000 235.000
32.45000 195.000
32.66000 300.000
32.87000 182.000
33.08000 244.000
33.29000 186.000
33.50000 176.000
33.71000 269.000
33.92000 231.000
34.13000 187.000
34.34000 177.000
34.55000 181.000
34.76000 183.000
34.97000 192.000
35.18000 178.000
35.39000 182.000
35.60000 160.000
35.81000 366.000
36.02000 174.000
36.23000 192.000
36.44000 221.000
36.65000 211.000
36.86000 173.000
37.07000 174.000
37.28000 142.000
37.49000 173.000
37.70000 159.000
37.91000 163.000
38.12000 149.000
38.33000 132.000
38.54000 153.000
38.75000 225.000
38.96000 171.000
39.17000 146.000
39.38000 138.000
39.59000 141.000
39.80000 143.000
40.01000 173.000
40.22000 130.000
40.43000 131.000
40.64000 147.000
40.85000 203.000
41.06000 142.000
41.27000 115.000
41.48000 130.000
41.69000 109.000
41.90000 126.000
42.11000 122.000
42.32000 173.000
42.53000 132.000
42.74000 131.000
42.95000 130.000
43.16000 166.000
43.37000 155.000
43.58000 116.000
43.79000 112.000
44.00000 124.000
44.21000 115.000
44.42000 108.000
44.63000 133.000
44.84000 105.000
45.05000 123.000
45.26000 108.000
45.47000 148.000
45.68000 110.000
45.89000 123.000
46.10000 120.000
46.31000 139.000
46.52000 121.000
46.73000 108.000
46.94000 132.000
47.15000 127.000
47.36000 111.000
47.57000 135.000
47.78000 130.000
47.99000 132.000
48.20000 90.000
48.41000 125.000
48.62000 109.000
48.83000 102.000
49.04000 123.000
49.25000 114.000
49.46000 122.000
49.67000 100.000
49.88000 134.000
50.09000 124.000
50.30000 130.000
50.51000 145.000
50.72000 127.000
50.93000 105.000
51.14000 112.000
51.35000 94.000
51.56000 92.000
51.77000 104.000
51.98000 102.000
52.19000 113.000
52.40000 117.000
52.61000 108.000
52.82000 136.000
53.03000 136.000
53.24000 110.000
53.45000 152.000
53.66000 127.000
53.87000 122.000
54.08000 124.000
54.29000 103.000
54.50000 106.000
54.71000 124.000
54.92000 108.000
55.13000 127.000
55.34000 136.000
55.55000 125.000
55.76000 134.000
55.97000 112.000
56.18000 121.000
56.39000 95.000
56.60000 91.000
56.81000 91.000
57.02000 106.000
57.23000 105.000
57.44000 103.000
57.65000 86.000
57.86000 100.000
58.07000 107.000
58.28000 94.000
58.49000 123.000
58.70000 132.000
58.91000 102.000
59.12000 90.000
59.33000 113.000
59.54000 104.000
59.75000 89.000
59.96000 110.000
60.17000 75.000
60.38000 91.000
60.59000 76.000
60.80000 81.000
61.01000 97.000
61.22000 82.000
61.43000 89.000
61.64000 75.000
61.85000 97.000
61.98500 83.000

File: HSC087_gewII.xy
2.00000 1.000
2.21000 2.000
2.42000 5.000
2.63000 1.000
2.84000 4.000
3.05000 2.000
3.26000 124.000
3.47000 129.000
3.68000 159.000
3.89000 152.000
4.10000 135.000
4.31000 174.000
4.52000 159.000
4.73000 166.000
4.94000 158.000
5.15000 168.000
5.36000 201.000
5.57000 165.000
5.78000 202.000
5.99000 237.000
6.20000 490.000
6.41000 741.000
6.62000 274.000
6.83000 208.000
7.04000 220.000
7.25000 212.000
7.46000 211.000
7.67000 223.000
7.88000 231.000
8.09000 229.000
8.30000 269.000
8.51000 269.000
8.72000 246.000
8.93000 283.000
9.14000 236.000
9.35000 277.000
9.56000 320.000
9.77000 594.000
9.98000 543.000
10.19000 769.000
10.40000 905.000
10.61000 537.000
10.82000 353.000
11.03000 272.000
11.24000 244.000
11.45000 225.000
11.66000 217.000
11.87000 246.000
12.08000 261.000
12.29000 273.000
12.50000 329.000
12.71000 358.000
12.92000 291.000
13.13000 268.000
13.34000 236.000
13.55000 236.000
13.76000 235.000
13.97000 230.000
14.18000 247.000
14.39000 220.000
14.60000 251.000
14.81000 250.000
15.02000 294.000
15.23000 268.000
15.44000 339.000
15.65000 291.000
15.86000 267.000
16.07000 261.000
16.28000 257.000
16.49000 271.000
16.70000 261.000
16.91000 292.000
17.12000 426.000
17.33000 425.000
17.54000 331.000
17.75000 323.000
17.96000 459.000
18.17000 328.000
18.38000 317.000
18.59000 320.000
18.80000 379.000
19.01000 311.000
19.22000 484.000
19.43000 348.000
19.64000 336.000
19.85000 362.000
20.06000 274.000
20.27000 244.000
20.48000 256.000
20.69000 281.000
20.90000 292.000
21.11000 276.000
21.32000 294.000
21.53000 252.000
21.74000 259.000
21.95000 254.000
22.16000 263.000
22.37000 241.000
22.58000 255.000
22.79000 247.000
23.00000 275.000
23.21000 269.000
23.42000 271.000
23.63000 255.000
23.84000 305.000
24.05000 274.000
24.26000 324.000
24.47000 427.000
24.68000 483.000
24.89000 524.000
25.10000 560.000
25.31000 472.000
25.52000 470.000
25.73000 569.000
25.94000 734.000
26.15000 919.000
26.36000 759.000
26.57000 815.000
26.78000 672.000
26.99000 655.000
27.20000 716.000
27.41000 762.000
27.62000 1194.000
27.83000 847.000
28.04000 782.000
28.25000 777.000
28.46000 807.000
28.67000 656.000
28.88000 466.000
29.09000 392.000
29.30000 422.000
29.51000 335.000
29.72000 339.000
29.93000 336.000
30.14000 324.000
30.35000 373.000
30.56000 472.000
30.77000 364.000
30.98000 386.000
31.19000 360.000
31.40000 290.000
31.61000 310.000
31.82000 257.000
32.03000 274.000
32.24000 252.000
32.45000 231.000
32.66000 236.000
32.87000 225.000
33.08000 236.000
33.29000 209.000
33.50000 206.000
33.71000 248.000
33.92000 216.000
34.13000 215.000
34.34000 244.000
34.55000 232.000
34.76000 215.000
34.97000 222.000
35.18000 207.000
35.39000 208.000
35.60000 181.000
35.81000 246.000
36.02000 217.000
36.23000 266.000
36.44000 273.000
36.65000 234.000
36.86000 204.000
37.07000 192.000
37.28000 172.000
37.49000 187.000
37.70000 217.000
37.91000 195.000
38.12000 145.000
38.33000 153.000
38.54000 176.000
38.75000 177.000
38.96000 173.000
39.17000 176.000
39.38000 153.000
39.59000 146.000
39.80000 186.000
40.01000 228.000
40.22000 196.000
40.43000 180.000
40.64000 168.000
40.85000 185.000
41.06000 148.000
41.27000 165.000
41.48000 149.000
41.69000 167.000
41.90000 133.000
42.11000 135.000
42.32000 148.000
42.53000 136.000
42.74000 151.000
42.95000 138.000
43.16000 139.000
43.37000 148.000
43.58000 132.000
43.79000 124.000
44.00000 131.000
44.21000 140.000
44.42000 134.000
44.63000 130.000
44.84000 122.000
45.05000 131.000
45.26000 121.000
45.47000 154.000
45.68000 147.000
45.89000 128.000
46.10000 126.000
46.31000 156.000
46.52000 120.000
46.73000 131.000
46.94000 158.000
47.15000 152.000
47.36000 147.000
47.57000 145.000
47.78000 162.000
47.99000 131.000
48.20000 118.000
48.41000 133.000
48.62000 130.000
48.83000 139.000
49.04000 156.000
49.25000 128.000
49.46000 136.000
49.67000 136.000
49.88000 155.000
50.09000 157.000
50.30000 154.000
50.51000 146.000
50.72000 152.000
50.93000 127.000
51.14000 135.000
51.35000 138.000
51.56000 117.000
51.77000 116.000
51.98000 115.000
52.19000 114.000
52.40000 124.000
52.61000 114.000
52.82000 135.000
53.03000 123.000
53.24000 124.000
53.45000 138.000
53.66000 132.000
53.87000 129.000
54.08000 144.000
54.29000 117.000
54.50000 137.000
54.71000 137.000
54.92000 148.000
55.13000 144.000
55.34000 130.000
55.55000 127.000
55.76000 141.000
55.97000 128.000
56.18000 136.000
56.39000 127.000
56.60000 114.000
56.81000 132.000
57.02000 106.000
57.23000 114.000
57.44000 115.000
57.65000 96.000
57.86000 111.000
58.07000 125.000
58.28000 106.000
58.49000 123.000
58.70000 128.000
58.91000 109.000
59.12000 114.000
59.33000 101.000
59.54000 110.000
59.75000 104.000
59.96000 105.000
60.17000 92.000
60.38000 98.000
60.59000 103.000
60.80000 100.000
61.01000 108.000
61.22000 101.000
61.43000 91.000
61.64000 91.000
61.85000 100.000
61.98500 103.000

File: HSC089.xy
2.00000 0.000
2.21000 0.000
2.42000 0.000
2.63000 1.000
2.84000 0.000
3.05000 1.000
3.26000 15.000
3.47000 14.000
3.68000 18.000
3.89000 30.000
4.10000 26.000
4.31000 18.000
4.52000 31.000
4.73000 31.000
4.94000 28.000
5.15000 33.000
5.36000 37.000
5.57000 28.000
5.78000 31.000
5.99000 46.000
6.20000 25.000
6.41000 40.000
6.62000 40.000
6.83000 35.000
7.04000 28.000
7.25000 40.000
7.46000 44.000
7.67000 51.000
7.88000 43.000
8.09000 37.000
8.30000 39.000
8.51000 39.000
8.72000 43.000
8.93000 35.000
9.14000 44.000
9.35000 34.000
9.56000 44.000
9.77000 41.000
9.98000 48.000
10.19000 43.000
10.40000 40.000
10.61000 51.000
10.82000 46.000
11.03000 44.000
11.24000 55.000
11.45000 247.000
11.66000 50.000
11.87000 49.000
12.08000 39.000
12.29000 48.000
12.50000 45.000
12.71000 40.000
12.92000 44.000
13.13000 49.000
13.34000 57.000
13.55000 43.000
13.76000 39.000
13.97000 46.000
14.18000 57.000
14.39000 53.000
14.60000 39.000
14.81000 51.000
15.02000 40.000
15.23000 78.000
15.44000 102.000
15.65000 41.000
15.86000 53.000
16.07000 48.000
16.28000 47.000
16.49000 37.000
16.70000 45.000
16.91000 49.000
17.12000 45.000
17.33000 40.000
17.54000 46.000
17.75000 50.000
17.96000 43.000
18.17000 50.000
18.38000 92.000
18.59000 49.000
18.80000 60.000
19.01000 53.000
19.22000 47.000
19.43000 55.000
19.64000 53.000
19.85000 52.000
20.06000 56.000
20.27000 57.000
20.48000 56.000
20.69000 53.000
20.90000 56.000
21.11000 81.000
21.32000 56.000
21.53000 58.000
21.74000 90.000
21.95000 67.000
22.16000 57.000
22.37000 50.000
22.58000 136.000
22.79000 69.000
23.00000 1121.000
23.21000 75.000
23.42000 64.000
23.63000 62.000
23.84000 60.000
24.05000 64.000
24.26000 56.000
24.47000 52.000
24.68000 61.000
24.89000 236.000
25.10000 63.000
25.31000 56.000
25.52000 57.000
25.73000 193.000
25.94000 72.000
26.15000 74.000
26.36000 108.000
26.57000 74.000
26.78000 99.000
26.99000 65.000
27.20000 42.000
27.41000 49.000
27.62000 330.000
27.83000 80.000
28.04000 62.000
28.25000 59.000
28.46000 62.000
28.67000 1053.000
28.88000 218.000
29.09000 63.000
29.30000 60.000
29.51000 42.000
29.72000 57.000
29.93000 52.000
30.14000 48.000
30.35000 46.000
30.56000 50.000
30.77000 46.000
30.98000 50.000
31.19000 61.000
31.40000 930.000
31.61000 59.000
31.82000 59.000
32.03000 51.000
32.24000 53.000
32.45000 52.000
32.66000 55.000
32.87000 52.000
33.08000 41.000
33.29000 166.000
33.50000 85.000
33.71000 40.000
33.92000 53.000
34.13000 552.000
34.34000 59.000
34.55000 44.000
34.76000 63.000
34.97000 68.000
35.18000 40.000
35.39000 34.000
35.60000 41.000
35.81000 133.000
36.02000 65.000
36.23000 40.000
36.44000 44.000
36.65000 36.000
36.86000 41.000
37.07000 313.000
37.28000 72.000
37.49000 45.000
37.70000 53.000
37.91000 147.000
38.12000 43.000
38.33000 33.000
38.54000 38.000
38.75000 39.000
38.96000 38.000
39.17000 41.000
39.38000 190.000
39.59000 38.000
39.80000 46.000
40.01000 51.000
40.22000 42.000
40.43000 44.000
40.64000 109.000
40.85000 33.000
41.06000 38.000
41.27000 41.000
41.48000 37.000
41.69000 39.000
41.90000 38.000
42.11000 84.000
42.32000 36.000
42.53000 52.000
42.74000 358.000
42.95000 49.000
43.16000 76.000
43.37000 43.000
43.58000 34.000
43.79000 36.000
44.00000 51.000
44.21000 40.000
44.42000 50.000
44.63000 50.000
44.84000 36.000
45.05000 44.000
45.26000 84.000
45.47000 52.000
45.68000 41.000
45.89000 34.000
46.10000 39.000
46.31000 171.000
46.52000 38.000
46.73000 47.000
46.94000 43.000
47.15000 92.000
47.36000 44.000
47.57000 42.000
47.78000 269.000
47.99000 55.000
48.20000 56.000
48.41000 39.000
48.62000 43.000
48.83000 42.000
49.04000 91.000
49.25000 35.000
49.46000 72.000
49.67000 85.000
49.88000 134.000
50.09000 56.000
50.30000 45.000
50.51000 61.000
50.72000 48.000
50.93000 60.000
51.14000 105.000
51.35000 67.000
51.56000 40.000
51.77000 45.000
51.98000 107.000
52.19000 55.000
52.40000 44.000
52.61000 43.000
52.82000 49.000
53.03000 197.000
53.24000 83.000
53.45000 46.000
53.66000 43.000
53.87000 94.000
54.08000 58.000
54.29000 54.000
54.50000 44.000
54.71000 49.000
54.92000 43.000
55.13000 114.000
55.34000 79.000
55.55000 55.000
55.76000 262.000
55.97000 60.000
56.18000 54.000
56.39000 52.000
56.60000 93.000
56.81000 116.000
57.02000 57.000
57.23000 119.000
57.44000 60.000
57.65000 48.000
57.86000 79.000
58.07000 61.000
58.28000 45.000
58.49000 43.000
58.70000 44.000
58.91000 42.000
59.12000 109.000
59.33000 38.000
59.54000 45.000
59.75000 71.000
59.96000 108.000
60.17000 89.000
60.38000 73.000
60.59000 61.000
60.80000 60.000
61.01000 46.000
61.22000 62.000
61.43000 49.000
61.64000 133.000
61.85000 59.000
61.98500 47.000

File: HSC090.xy
2.00000 2.000
2.21000 0.000
2.42000 2.000
2.63000 0.000
2.84000 0.000
3.05000 2.000
3.26000 28.000
3.47000 50.000
3.68000 46.000
3.89000 48.000
4.10000 47.000
4.31000 62.000
4.52000 53.000
4.73000 57.000
4.94000 60.000
5.15000 50.000
5.36000 69.000
5.57000 66.000
5.78000 66.000
5.99000 70.000
6.20000 144.000
6.41000 75.000
6.62000 68.000
6.83000 78.000
7.04000 89.000
7.25000 79.000
7.46000 79.000
7.67000 77.000
7.88000 77.000
8.09000 76.000
8.30000 78.000
8.51000 75.000
8.72000 77.000
8.93000 107.000
9.14000 86.000
9.35000 88.000
9.56000 93.000
9.77000 95.000
9.98000 88.000
10.19000 112.000
10.40000 194.000
10.61000 90.000
10.82000 98.000
11.03000 98.000
11.24000 94.000
11.45000 391.000
11.66000 92.000
11.87000 83.000
12.08000 86.000
12.29000 92.000
12.50000 94.000
12.71000 98.000
12.92000 94.000
13.13000 96.000
13.34000 98.000
13.55000 87.000
13.76000 86.000
13.97000 83.000
14.18000 93.000
14.39000 95.000
14.60000 93.000
14.81000 106.000
15.02000 152.000
15.23000 154.000
15.44000 259.000
15.65000 94.000
15.86000 89.000
16.07000 105.000
16.28000 117.000
16.49000 89.000
16.70000 110.000
16.91000 141.000
17.12000 102.000
17.33000 109.000
17.54000 102.000
17.75000 100.000
17.96000 119.000
18.17000 104.000
18.38000 169.000
18.59000 108.000
18.80000 127.000
19.01000 105.000
19.22000 204.000
19.43000 90.000
19.64000 101.000
19.85000 106.000
20.06000 135.000
20.27000 115.000
20.48000 105.000
20.69000 103.000
20.90000 139.000
21.11000 167.000
21.32000 132.000
21.53000 146.000
21.74000 201.000
21.95000 179.000
22.16000 157.000
22.37000 131.000
22.58000 321.000
22.79000 161.000
23.00000 2954.000
23.21000 209.000
23.42000 121.000
23.63000 143.000
23.84000 142.000
24.05000 122.000
24.26000 141.000
24.47000 174.000
24.68000 145.000
24.89000 539.000
25.10000 182.000
25.31000 151.000
25.52000 197.000
25.73000 505.000
25.94000 296.000
26.15000 208.000
26.36000 209.000
26.57000 402.000
26.78000 294.000
26.99000 172.000
27.20000 204.000
27.41000 280.000
27.62000 1085.000
27.83000 360.000
28.04000 168.000
28.25000 172.000
28.46000 169.000
28.67000 1211.000
28.88000 605.000
29.09000 187.000
29.30000 135.000
29.51000 142.000
29.72000 137.000
29.93000 133.000
30.14000 128.000
30.35000 145.000
30.56000 171.000
30.77000 128.000
30.98000 125.000
31.19000 146.000
31.40000 909.000
31.61000 140.000
31.82000 115.000
32.03000 130.000
32.24000 127.000
32.45000 123.000
32.66000 120.000
32.87000 113.000
33.08000 102.000
33.29000 202.000
33.50000 139.000
33.71000 142.000
33.92000 129.000
34.13000 872.000
34.34000 125.000
34.55000 115.000
34.76000 152.000
34.97000 151.000
35.18000 105.000
35.39000 119.000
35.60000 123.000
35.81000 465.000
36.02000 210.000
36.23000 106.000
36.44000 93.000
36.65000 99.000
36.86000 131.000
37.07000 558.000
37.28000 158.000
37.49000 105.000
37.70000 154.000
37.91000 311.000
38.12000 97.000
38.33000 107.000
38.54000 87.000
38.75000 118.000
38.96000 106.000
39.17000 99.000
39.38000 381.000
39.59000 99.000
39.80000 86.000
40.01000 95.000
40.22000 93.000
40.43000 114.000
40.64000 184.000
40.85000 92.000
41.06000 80.000
41.27000 90.000
41.48000 77.000
41.69000 95.000
41.90000 101.000
42.11000 228.000
42.32000 102.000
42.53000 110.000
42.74000 697.000
42.95000 120.000
43.16000 142.000
43.37000 112.000
43.58000 98.000
43.79000 84.000
44.00000 116.000
44.21000 103.000
44.42000 113.000
44.63000 91.000
44.84000 92.000
45.05000 137.000
45.26000 125.000
45.47000 149.000
45.68000 138.000
45.89000 95.000
46.10000 116.000
46.31000 216.000
46.52000 106.000
46.73000 89.000
46.94000 108.000
47.15000 148.000
47.36000 92.000
47.57000 179.000
47.78000 437.000
47.99000 153.000
48.20000 111.000
48.41000 109.000
48.62000 100.000
48.83000 97.000
49.04000 139.000
49.25000 95.000
49.46000 156.000
49.67000 162.000
49.88000 237.000
50.09000 179.000
50.30000 117.000
50.51000 121.000
50.72000 105.000
50.93000 110.000
51.14000 418.000
51.35000 161.000
51.56000 131.000
51.77000 120.000
51.98000 308.000
52.19000 145.000
52.40000 115.000
52.61000 123.000
52.82000 149.000
53.03000 371.000
53.24000 224.000
53.45000 125.000
53.66000 114.000
53.87000 363.000
54.08000 146.000
54.29000 99.000
54.50000 97.000
54.71000 117.000
54.92000 129.000
55.13000 217.000
55.34000 185.000
55.55000 142.000
55.76000 330.000
55.97000 151.000
56.18000 131.000
56.39000 120.000
56.60000 334.000
56.81000 197.000
57.02000 152.000
57.23000 234.000
57.44000 204.000
57.65000 197.000
57.86000 160.000
58.07000 121.000
58.28000 115.000
58.49000 101.000
58.70000 109.000
58.91000 123.000
59.12000 160.000
59.33000 111.000
59.54000 126.000
59.75000 146.000
59.96000 184.000
60.17000 161.000
60.38000 142.000
60.59000 151.000
60.80000 101.000
61.01000 110.000
61.22000 116.000
61.43000 101.000
61.64000 203.000
61.85000 106.000
61.98500 103.000