Folder: phd-thesis/ISoD/xrd_data (part 18)

File: HSC094_gew_range_2.xy
2.00000 2.000
2.21000 4.000
2.42000 4.000
2.63000 1.000
2.84000 6.000
3.05000 15.000
3.26000 229.000
3.47000 224.000
3.68000 191.000
3.89000 190.000
4.10000 172.000
4.31000 185.000
4.52000 174.000
4.73000 174.000
4.94000 181.000
5.15000 162.000
5.36000 188.000
5.57000 166.000
5.78000 192.000
5.99000 185.000
6.20000 181.000
6.41000 194.000
6.62000 178.000
6.83000 165.000
7.04000 200.000
7.25000 177.000
7.46000 213.000
7.67000 215.000
7.88000 220.000
8.09000 191.000
8.30000 219.000
8.51000 261.000
8.72000 308.000
8.93000 1448.000
9.14000 337.000
9.35000 243.000
9.56000 228.000
9.77000 203.000
9.98000 225.000
10.19000 252.000
10.40000 622.000
10.61000 993.000
10.82000 340.000
11.03000 226.000
11.24000 255.000
11.45000 461.000
11.66000 4130.000
11.87000 483.000
12.08000 284.000
12.29000 274.000
12.50000 252.000
12.71000 248.000
12.92000 802.000
13.13000 421.000
13.34000 1027.000
13.55000 213.000
13.76000 203.000
13.97000 326.000
14.18000 222.000
14.39000 205.000
14.60000 228.000
14.81000 385.000
15.02000 2771.000
15.23000 231.000
15.44000 295.000
15.65000 280.000
15.86000 261.000
16.07000 909.000
16.28000 261.000
16.49000 340.000
16.70000 1286.000
16.91000 246.000
17.12000 212.000
17.33000 222.000
17.54000 224.000
17.75000 248.000
17.96000 518.000
18.17000 751.000
18.38000 270.000
18.59000 228.000
18.80000 242.000
19.01000 222.000
19.22000 243.000
19.43000 265.000
19.64000 2009.000
19.85000 222.000
20.06000 253.000
20.27000 531.000
20.48000 247.000
20.69000 456.000
20.90000 302.000
21.11000 930.000
21.32000 570.000
21.53000 3139.000
21.74000 876.000
21.95000 397.000
22.16000 324.000
22.37000 460.000
22.58000 358.000
22.79000 417.000
23.00000 271.000
23.21000 260.000
23.42000 437.000
23.63000 257.000
23.84000 252.000
24.05000 229.000
24.26000 244.000
24.47000 238.000
24.68000 244.000
24.89000 247.000
25.10000 229.000
25.31000 243.000
25.52000 241.000
25.73000 246.000
25.94000 232.000
26.15000 481.000
26.36000 252.000
26.57000 298.000
26.78000 687.000
26.99000 460.000
27.20000 581.000
27.41000 341.000
27.62000 1465.000
27.83000 482.000
28.04000 445.000
28.25000 238.000
28.46000 387.000
28.67000 543.000
28.88000 382.000
29.09000 411.000
29.30000 252.000
29.51000 247.000
29.72000 230.000
29.93000 256.000
30.14000 449.000
30.35000 2141.000
30.56000 353.000
30.77000 246.000
30.98000 235.000
31.19000 304.000
31.40000 302.000
31.61000 640.000
31.82000 2682.000
32.03000 510.000
32.24000 309.000
32.45000 763.000
32.66000 520.000
32.87000 251.000
33.08000 215.000
33.29000 291.000
33.50000 406.000
33.71000 324.000
33.92000 192.000
34.13000 185.000
34.34000 196.000
34.55000 171.000
34.76000 185.000
34.97000 232.000
35.18000 292.000
35.39000 355.000
35.60000 670.000
35.81000 219.000
36.02000 272.000
36.23000 899.000
36.44000 252.000
36.65000 334.000
36.86000 291.000
37.07000 246.000
37.28000 298.000
37.49000 987.000
37.70000 523.000
37.91000 193.000
38.12000 165.000
38.33000 205.000
38.54000 260.000
38.75000 148.000
38.96000 155.000
39.17000 188.000
39.38000 207.000
39.59000 188.000
39.80000 374.000
40.01000 243.000
40.22000 171.000
40.43000 233.000
40.64000 227.000
40.85000 537.000
41.06000 260.000
41.27000 287.000
41.48000 209.000
41.69000 245.000
41.90000 538.000
42.11000 285.000
42.32000 296.000
42.53000 247.000
42.74000 627.000
42.95000 377.000
43.16000 299.000
43.37000 583.000
43.58000 382.000
43.79000 232.000
44.00000 394.000
44.21000 306.000
44.42000 178.000
44.63000 443.000
44.84000 367.000
45.05000 183.000
45.26000 238.000
45.47000 872.000
45.68000 396.000
45.89000 294.000
46.10000 239.000
46.31000 247.000
46.52000 260.000
46.73000 552.000
46.94000 461.000
47.15000 239.000
47.36000 192.000
47.57000 681.000
47.78000 204.000
47.99000 486.000
48.20000 390.000
48.41000 368.000
48.62000 380.000
48.83000 325.000
49.04000 244.000
49.25000 273.000
49.46000 167.000
49.67000 180.000
49.88000 384.000
50.09000 300.000
50.30000 214.000
50.51000 218.000
50.72000 312.000
50.93000 516.000
51.14000 207.000
51.35000 167.000
51.56000 190.000
51.77000 245.000
51.98000 221.000
52.19000 164.000
52.40000 158.000
52.61000 199.000
52.82000 436.000
53.03000 245.000
53.24000 231.000
53.45000 191.000
53.66000 148.000
53.87000 155.000
54.08000 146.000
54.29000 201.000
54.50000 280.000
54.71000 383.000
54.92000 380.000
55.13000 317.000
55.34000 503.000
55.55000 311.000
55.76000 201.000
55.97000 210.000
56.18000 279.000
56.39000 252.000
56.60000 290.000
56.81000 315.000
57.02000 243.000
57.23000 247.000
57.44000 204.000
57.65000 208.000
57.86000 196.000
58.07000 299.000
58.28000 253.000
58.49000 203.000
58.70000 215.000
58.91000 218.000
59.12000 162.000
59.33000 186.000
59.54000 257.000
59.75000 242.000
59.96000 287.000
60.17000 458.000
60.38000 231.000
60.59000 185.000
60.80000 153.000
61.01000 277.000
61.22000 238.000
61.43000 273.000
61.64000 184.000
61.85000 161.000
61.98500 261.000

File: HSC094_gew_ranges_combined.xy
2.0 8.0
2.21 8.0
2.42 8.0
2.63 5.0
2.84 10.0
3.05 34.0
3.26 469.0
3.47 432.0
3.68 379.0
3.89 363.0
4.1 351.0
4.31 364.0
4.52 347.0
4.73 347.0
4.94 345.0
5.15 330.0
5.36 362.0
5.57 335.0
5.78 378.0
5.99 343.0
6.2 360.0
6.41 353.0
6.62 361.0
6.83 370.0
7.04 391.0
7.25 359.0
7.46 411.0
7.67 432.0
7.88 422.0
8.09 395.0
8.3 437.0
8.51 508.0
8.72 640.0
8.93 2818.0
9.14 692.0
9.35 479.0
9.56 447.0
9.77 400.0
9.98 471.0
10.19 498.0
10.4 1198.0
10.61 2083.0
10.82 698.0
11.03 428.0
11.24 511.0
11.45 933.0
11.66 8095.0
11.87 994.0
12.08 555.0
12.29 525.0
12.5 474.0
12.71 473.0
12.92 1569.0
13.13 858.0
13.34 2041.0
13.55 443.0
13.76 414.0
13.97 606.0
14.18 445.0
14.39 410.0
14.6 449.0
14.81 753.0
15.02 5481.0
15.23 452.0
15.44 572.0
15.65 541.0
15.86 509.0
16.07 1745.0
16.28 525.0
16.49 650.0
16.7 2535.0
16.91 478.0
17.12 418.0
17.33 435.0
17.54 434.0
17.75 496.0
17.96 1029.0
18.17 1502.0
18.38 527.0
18.59 470.0
18.8 501.0
19.01 435.0
19.22 459.0
19.43 535.0
19.64 4120.0
19.85 446.0
20.06 484.0
20.27 1055.0
20.48 509.0
20.69 880.0
20.9 607.0
21.11 1823.0
21.32 1141.0
21.53 6076.0
21.74 1722.0
21.95 801.0
22.16 637.0
22.37 885.0
22.58 722.0
22.79 828.0
23.0 529.0
23.21 527.0
23.42 896.0
23.63 535.0
23.84 495.0
24.05 480.0
24.26 465.0
24.47 487.0
24.68 484.0
24.89 505.0
25.1 468.0
25.31 474.0
25.52 459.0
25.73 438.0
25.94 473.0
26.15 940.0
26.36 511.0
26.57 562.0
26.78 1409.0
26.99 885.0
27.2 1167.0
27.41 695.0
27.62 2967.0
27.83 914.0
28.04 837.0
28.25 496.0
28.46 736.0
28.67 1053.0
28.88 760.0
29.09 786.0
29.3 486.0
29.51 497.0
29.72 459.0
29.93 507.0
30.14 894.0
30.35 4249.0
30.56 660.0
30.77 480.0
30.98 490.0
31.19 613.0
31.4 615.0
31.61 1271.0
31.82 5240.0
32.03 1019.0
32.24 609.0
32.45 1528.0
32.66 1019.0
32.87 522.0
33.08 428.0
33.29 569.0
33.5 774.0
33.71 632.0
33.92 386.0
34.13 367.0
34.34 384.0
34.55 369.0
34.76 378.0
34.97 466.0
35.18 577.0
35.39 687.0
35.6 1372.0
35.81 444.0
36.02 503.0
36.23 1735.0
36.44 530.0
36.65 678.0
36.86 586.0
37.07 445.0
37.28 580.0
37.49 2033.0
37.7 1041.0
37.91 414.0
38.12 340.0
38.33 409.0
38.54 510.0
38.75 309.0
38.96 304.0
39.17 356.0
39.38 415.0
39.59 371.0
39.8 777.0
40.01 521.0
40.22 340.0
40.43 460.0
40.64 407.0
40.85 1058.0
41.06 524.0
41.27 611.0
41.48 414.0
41.69 503.0
41.9 1047.0
42.11 601.0
42.32 571.0
42.53 502.0
42.74 1275.0
42.95 767.0
43.16 615.0
43.37 1096.0
43.58 760.0
43.79 477.0
44.0 776.0
44.21 577.0
44.42 360.0
44.63 877.0
44.84 702.0
45.05 388.0
45.26 507.0
45.47 1715.0
45.68 771.0
45.89 580.0
46.1 490.0
46.31 470.0
46.52 531.0
46.73 1087.0
46.94 930.0
47.15 483.0
47.36 412.0
47.57 1348.0
47.78 432.0
47.99 1022.0
48.2 772.0
48.41 744.0
48.62 733.0
48.83 654.0
49.04 486.0
49.25 517.0
49.46 333.0
49.67 351.0
49.88 809.0
50.09 589.0
50.3 419.0
50.51 440.0
50.72 634.0
50.93 1015.0
51.14 399.0
51.35 334.0
51.56 387.0
51.77 482.0
51.98 453.0
52.19 324.0
52.4 309.0
52.61 400.0
52.82 870.0
53.03 474.0
53.24 441.0
53.45 376.0
53.66 312.0
53.87 305.0
54.08 310.0
54.29 370.0
54.5 525.0
54.71 729.0
54.92 739.0
55.13 641.0
55.34 1004.0
55.55 637.0
55.76 385.0
55.97 426.0
56.18 577.0
56.39 504.0
56.6 608.0
56.81 624.0
57.02 496.0
57.23 488.0
57.44 414.0
57.65 424.0
57.86 369.0
58.07 604.0
58.28 526.0
58.49 441.0
58.7 412.0
58.91 439.0
59.12 322.0
59.33 350.0
59.54 535.0
59.75 461.0
59.96 552.0
60.17 881.0
60.38 461.0
60.59 362.0
60.8 313.0
61.01 527.0
61.22 476.0
61.43 574.0
61.64 355.0
61.85 320.0
61.985 498.0

File: HSC094_ungew.xy
2.00000 0.000
2.21000 0.000
2.42000 0.000
2.63000 0.000
2.84000 0.000
3.05000 0.000
3.26000 14.000
3.47000 16.000
3.68000 10.000
3.89000 13.000
4.10000 15.000
4.31000 15.000
4.52000 22.000
4.73000 18.000
4.94000 17.000
5.15000 10.000
5.36000 14.000
5.57000 16.000
5.78000 15.000
5.99000 16.000
6.20000 15.000
6.41000 16.000
6.62000 10.000
6.83000 16.000
7.04000 18.000
7.25000 16.000
7.46000 12.000
7.67000 21.000
7.88000 15.000
8.09000 18.000
8.30000 13.000
8.51000 16.000
8.72000 13.000
8.93000 19.000
9.14000 18.000
9.35000 13.000
9.56000 13.000
9.77000 16.000
9.98000 15.000
10.19000 14.000
10.40000 18.000
10.61000 25.000
10.82000 16.000
11.03000 15.000
11.24000 20.000
11.45000 22.000
11.66000 75.000
11.87000 13.000
12.08000 14.000
12.29000 10.000
12.50000 15.000
12.71000 15.000
12.92000 24.000
13.13000 18.000
13.34000 19.000
13.55000 18.000
13.76000 20.000
13.97000 17.000
14.18000 16.000
14.39000 16.000
14.60000 25.000
14.81000 55.000
15.02000 328.000
15.23000 28.000
15.44000 16.000
15.65000 15.000
15.86000 19.000
16.07000 23.000
16.28000 12.000
16.49000 14.000
16.70000 23.000
16.91000 10.000
17.12000 15.000
17.33000 12.000
17.54000 13.000
17.75000 13.000
17.96000 23.000
18.17000 25.000
18.38000 16.000
18.59000 11.000
18.80000 16.000
19.01000 18.000
19.22000 13.000
19.43000 20.000
19.64000 25.000
19.85000 18.000
20.06000 13.000
20.27000 17.000
20.48000 16.000
20.69000 13.000
20.90000 23.000
21.11000 30.000
21.32000 21.000
21.53000 78.000
21.74000 17.000
21.95000 14.000
22.16000 14.000
22.37000 16.000
22.58000 15.000
22.79000 23.000
23.00000 11.000
23.21000 19.000
23.42000 21.000
23.63000 12.000
23.84000 17.000
24.05000 14.000
24.26000 15.000
24.47000 28.000
24.68000 20.000
24.89000 23.000
25.10000 19.000
25.31000 19.000
25.52000 10.000
25.73000 13.000
25.94000 23.000
26.15000 111.000
26.36000 16.000
26.57000 15.000
26.78000 20.000
26.99000 17.000
27.20000 25.000
27.41000 21.000
27.62000 37.000
27.83000 30.000
28.04000 37.000
28.25000 340.000
28.46000 85.000
28.67000 31.000
28.88000 24.000
29.09000 19.000
29.30000 18.000
29.51000 25.000
29.72000 17.000
29.93000 22.000
30.14000 49.000
30.35000 31.000
30.56000 23.000
30.77000 26.000
30.98000 21.000
31.19000 19.000
31.40000 28.000
31.61000 39.000
31.82000 72.000
32.03000 20.000
32.24000 21.000
32.45000 31.000
32.66000 24.000
32.87000 20.000
33.08000 21.000
33.29000 23.000
33.50000 39.000
33.71000 94.000
33.92000 349.000
34.13000 42.000
34.34000 26.000
34.55000 28.000
34.76000 25.000
34.97000 19.000
35.18000 25.000
35.39000 21.000
35.60000 35.000
35.81000 24.000
36.02000 17.000
36.23000 24.000
36.44000 17.000
36.65000 14.000
36.86000 22.000
37.07000 20.000
37.28000 14.000
37.49000 27.000
37.70000 27.000
37.91000 25.000
38.12000 31.000
38.33000 27.000
38.54000 23.000
38.75000 11.000
38.96000 21.000
39.17000 23.000
39.38000 27.000
39.59000 20.000
39.80000 32.000
40.01000 24.000
40.22000 45.000
40.43000 398.000
40.64000 124.000
40.85000 29.000
41.06000 27.000
41.27000 26.000
41.48000 27.000
41.69000 24.000
41.90000 31.000
42.11000 18.000
42.32000 17.000
42.53000 20.000
42.74000 26.000
42.95000 35.000
43.16000 116.000
43.37000 38.000
43.58000 33.000
43.79000 19.000
44.00000 37.000
44.21000 130.000
44.42000 41.000
44.63000 34.000
44.84000 23.000
45.05000 18.000
45.26000 24.000
45.47000 38.000
45.68000 34.000
45.89000 20.000
46.10000 52.000
46.31000 25.000
46.52000 26.000
46.73000 21.000
46.94000 28.000
47.15000 19.000
47.36000 15.000
47.57000 24.000
47.78000 24.000
47.99000 31.000
48.20000 23.000
48.41000 24.000
48.62000 30.000
48.83000 26.000
49.04000 24.000
49.25000 27.000
49.46000 43.000
49.67000 21.000
49.88000 32.000
50.09000 155.000
50.30000 85.000
50.51000 31.000
50.72000 23.000
50.93000 25.000
51.14000 47.000
51.35000 45.000
51.56000 50.000
51.77000 34.000
51.98000 31.000
52.19000 22.000
52.40000 13.000
52.61000 22.000
52.82000 22.000
53.03000 18.000
53.24000 26.000
53.45000 35.000
53.66000 85.000
53.87000 56.000
54.08000 22.000
54.29000 21.000
54.50000 30.000
54.71000 23.000
54.92000 25.000
55.13000 20.000
55.34000 31.000
55.55000 29.000
55.76000 30.000
55.97000 53.000
56.18000 55.000
56.39000 34.000
56.60000 26.000
56.81000 24.000
57.02000 22.000
57.23000 30.000
57.44000 23.000
57.65000 35.000
57.86000 29.000
58.07000 28.000
58.28000 32.000
58.49000 35.000
58.70000 149.000
58.91000 28.000
59.12000 29.000
59.33000 29.000
59.54000 30.000
59.75000 26.000
59.96000 27.000
60.17000 27.000
60.38000 36.000
60.59000 24.000
60.80000 22.000
61.01000 33.000
61.22000 38.000
61.43000 29.000
61.64000 26.000
61.85000 32.000
61.98500 31.000

File: HSC095.xy
2.00000 2.000
2.21000 1.000
2.42000 1.000
2.63000 3.000
2.84000 1.000
3.05000 12.000
3.26000 94.000
3.47000 103.000
3.68000 103.000
3.89000 103.000
4.10000 103.000
4.31000 119.000
4.52000 130.000
4.73000 131.000
4.94000 141.000
5.15000 126.000
5.36000 138.000
5.57000 149.000
5.78000 161.000
5.99000 195.000
6.20000 489.000
6.41000 163.000
6.62000 157.000
6.83000 158.000
7.04000 155.000
7.25000 173.000
7.46000 159.000
7.67000 187.000
7.88000 167.000
8.09000 156.000
8.30000 161.000
8.51000 158.000
8.72000 185.000
8.93000 227.000
9.14000 169.000
9.35000 167.000
9.56000 190.000
9.77000 188.000
9.98000 169.000
10.19000 219.000
10.40000 745.000
10.61000 165.000
10.82000 170.000
11.03000 176.000
11.24000 182.000
11.45000 168.000
11.66000 181.000
11.87000 228.000
12.08000 718.000
12.29000 655.000
12.50000 331.000
12.71000 188.000
12.92000 190.000
13.13000 178.000
13.34000 443.000
13.55000 198.000
13.76000 185.000
13.97000 165.000
14.18000 188.000
14.39000 171.000
14.60000 180.000
14.81000 172.000
15.02000 303.000
15.23000 187.000
15.44000 178.000
15.65000 187.000
15.86000 174.000
16.07000 187.000
16.28000 204.000
16.49000 276.000
16.70000 197.000
16.91000 223.000
17.12000 204.000
17.33000 186.000
17.54000 188.000
17.75000 200.000
17.96000 364.000
18.17000 196.000
18.38000 201.000
18.59000 219.000
18.80000 305.000
19.01000 219.000
19.22000 593.000
19.43000 513.000
19.64000 522.000
19.85000 178.000
20.06000 207.000
20.27000 213.000
20.48000 210.000
20.69000 193.000
20.90000 255.000
21.11000 249.000
21.32000 222.000
21.53000 305.000
21.74000 211.000
21.95000 199.000
22.16000 275.000
22.37000 202.000
22.58000 196.000
22.79000 196.000
23.00000 211.000
23.21000 205.000
23.42000 215.000
23.63000 233.000
23.84000 254.000
24.05000 226.000
24.26000 290.000
24.47000 565.000
24.68000 278.000
24.89000 211.000
25.10000 419.000
25.31000 282.000
25.52000 435.000
25.73000 788.000
25.94000 392.000
26.15000 497.000
26.36000 789.000
26.57000 1166.000
26.78000 288.000
26.99000 347.000
27.20000 281.000
27.41000 292.000
27.62000 1173.000
27.83000 1710.000
28.04000 283.000
28.25000 279.000
28.46000 280.000
28.67000 220.000
28.88000 260.000
29.09000 277.000
29.30000 259.000
29.51000 298.000
29.72000 236.000
29.93000 318.000
30.14000 297.000
30.35000 397.000
30.56000 317.000
30.77000 352.000
30.98000 286.000
31.19000 193.000
31.40000 178.000
31.61000 424.000
31.82000 228.000
32.03000 315.000
32.24000 192.000
32.45000 198.000
32.66000 259.000
32.87000 153.000
33.08000 229.000
33.29000 173.000
33.50000 176.000
33.71000 332.000
33.92000 245.000
34.13000 158.000
34.34000 149.000
34.55000 162.000
34.76000 140.000
34.97000 187.000
35.18000 145.000
35.39000 173.000
35.60000 141.000
35.81000 374.000
36.02000 116.000
36.23000 113.000
36.44000 138.000
36.65000 132.000
36.86000 117.000
37.07000 129.000
37.28000 116.000
37.49000 120.000
37.70000 81.000
37.91000 112.000
38.12000 128.000
38.33000 130.000
38.54000 112.000
38.75000 176.000
38.96000 126.000
39.17000 115.000
39.38000 118.000
39.59000 103.000
39.80000 107.000
40.01000 104.000
40.22000 108.000
40.43000 144.000
40.64000 113.000
40.85000 237.000
41.06000 112.000
41.27000 133.000
41.48000 96.000
41.69000 124.000
41.90000 122.000
42.11000 123.000
42.32000 149.000
42.53000 113.000
42.74000 129.000
42.95000 106.000
43.16000 125.000
43.37000 117.000
43.58000 95.000
43.79000 108.000
44.00000 110.000
44.21000 131.000
44.42000 126.000
44.63000 147.000
44.84000 125.000
45.05000 140.000
45.26000 97.000
45.47000 138.000
45.68000 88.000
45.89000 106.000
46.10000 119.000
46.31000 148.000
46.52000 110.000
46.73000 118.000
46.94000 131.000
47.15000 121.000
47.36000 106.000
47.57000 115.000
47.78000 111.000
47.99000 112.000
48.20000 92.000
48.41000 99.000
48.62000 99.000
48.83000 77.000
49.04000 131.000
49.25000 105.000
49.46000 115.000
49.67000 103.000
49.88000 101.000
50.09000 119.000
50.30000 119.000
50.51000 118.000
50.72000 132.000
50.93000 98.000
51.14000 100.000
51.35000 107.000
51.56000 91.000
51.77000 86.000
51.98000 106.000
52.19000 118.000
52.40000 97.000
52.61000 97.000
52.82000 118.000
53.03000 127.000
53.24000 125.000
53.45000 130.000
53.66000 97.000
53.87000 107.000
54.08000 124.000
54.29000 102.000
54.50000 113.000
54.71000 138.000
54.92000 120.000
55.13000 128.000
55.34000 108.000
55.55000 89.000
55.76000 132.000
55.97000 80.000
56.18000 90.000
56.39000 78.000
56.60000 96.000
56.81000 116.000
57.02000 79.000
57.23000 95.000
57.44000 113.000
57.65000 82.000
57.86000 85.000
58.07000 75.000
58.28000 95.000
58.49000 98.000
58.70000 92.000
58.91000 81.000
59.12000 75.000
59.33000 84.000
59.54000 81.000
59.75000 91.000
59.96000 100.000
60.17000 91.000
60.38000 95.000
60.59000 96.000
60.80000 73.000
61.01000 86.000
61.22000 79.000
61.43000 81.000
61.64000 64.000
61.85000 80.000
61.98500 86.000

File: HSC134.xyd
2.00000 7.000
2.21000 6.000
2.42000 8.000
2.63000 6.000
2.84000 8.000
3.05000 4.000
3.26000 380.000
3.47000 756.000
3.68000 646.000
3.89000 614.000
4.10000 585.000
4.31000 551.000
4.52000 480.000
4.73000 473.000
4.94000 489.000
5.15000 505.000
5.36000 480.000
5.57000 462.000
5.78000 443.000
5.99000 442.000
6.20000 497.000
6.41000 498.000
6.62000 487.000
6.83000 477.000
7.04000 527.000
7.25000 515.000
7.46000 598.000
7.67000 761.000
7.88000 1100.000
8.09000 1071.000
8.30000 845.000
8.51000 768.000
8.72000 690.000
8.93000 759.000
9.14000 671.000
9.35000 700.000
9.56000 684.000
9.77000 762.000
9.98000 792.000
10.19000 736.000
10.40000 668.000
10.61000 612.000
10.82000 554.000
11.03000 559.000
11.24000 591.000
11.45000 554.000
11.66000 559.000
11.87000 512.000
12.08000 513.000
12.29000 528.000
12.50000 544.000
12.71000 589.000
12.92000 587.000
13.13000 619.000
13.34000 610.000
13.55000 574.000
13.76000 546.000
13.97000 558.000
14.18000 580.000
14.39000 579.000
14.60000 587.000
14.81000 627.000
15.02000 608.000
15.23000 627.000
15.44000 632.000
15.65000 587.000
15.86000 580.000
16.07000 580.000
16.28000 597.000
16.49000 583.000
16.70000 552.000
16.91000 529.000
17.12000 588.000
17.33000 531.000
17.54000 611.000
17.75000 559.000
17.96000 589.000
18.17000 549.000
18.38000 578.000
18.59000 566.000
18.80000 636.000
19.01000 588.000
19.22000 568.000
19.43000 591.000
19.64000 599.000
19.85000 552.000
20.06000 588.000
20.27000 595.000
20.48000 571.000
20.69000 563.000
20.90000 644.000
21.11000 659.000
21.32000 679.000
21.53000 684.000
21.74000 688.000
21.95000 691.000
22.16000 664.000
22.37000 657.000
22.58000 731.000
22.79000 737.000
23.00000 716.000
23.21000 678.000
23.42000 750.000
23.63000 709.000
23.84000 713.000
24.05000 685.000
24.26000 680.000
24.47000 710.000
24.68000 740.000
24.89000 656.000
25.10000 725.000
25.31000 745.000
25.52000 741.000
25.73000 764.000
25.94000 771.000
26.15000 816.000
26.36000 829.000
26.57000 876.000
26.78000 949.000
26.99000 1037.000
27.20000 1190.000
27.41000 1372.000
27.62000 1554.000
27.83000 1920.000
28.04000 2784.000
28.25000 2783.000
28.46000 1760.000
28.67000 1272.000
28.88000 1057.000
29.09000 959.000
29.30000 889.000
29.51000 814.000
29.72000 754.000
29.93000 726.000
30.14000 657.000
30.35000 658.000
30.56000 671.000
30.77000 632.000
30.98000 572.000
31.19000 593.000
31.40000 596.000
31.61000 553.000
31.82000 597.000
32.03000 582.000
32.24000 529.000
32.45000 564.000
32.66000 490.000
32.87000 486.000
33.08000 483.000
33.29000 437.000
33.50000 431.000
33.71000 451.000
33.92000 429.000
34.13000 431.000
34.34000 413.000
34.55000 432.000
34.76000 436.000
34.97000 450.000
35.18000 505.000
35.39000 513.000
35.60000 528.000
35.81000 522.000
36.02000 526.000
36.23000 468.000
36.44000 482.000
36.65000 500.000
36.86000 496.000
37.07000 453.000
37.28000 481.000
37.49000 461.000
37.70000 433.000
37.91000 435.000
38.12000 414.000
38.33000 403.000
38.54000 402.000
38.75000 412.000
38.96000 400.000
39.17000 406.000
39.38000 388.000
39.59000 388.000
39.80000 355.000
40.01000 379.000
40.22000 377.000
40.43000 350.000
40.64000 359.000
40.85000 375.000
41.06000 357.000
41.27000 344.000
41.48000 324.000
41.69000 361.000
41.90000 325.000
42.11000 350.000
42.32000 347.000
42.53000 327.000
42.74000 368.000
42.95000 371.000
43.16000 394.000
43.37000 457.000
43.58000 392.000
43.79000 390.000
44.00000 370.000
44.21000 365.000
44.42000 358.000
44.63000 356.000
44.84000 359.000
45.05000 376.000
45.26000 348.000
45.47000 370.000
45.68000 353.000
45.89000 329.000
46.10000 317.000
46.31000 324.000
46.52000 296.000
46.73000 308.000
46.94000 308.000
47.15000 300.000
47.36000 308.000
47.57000 275.000
47.78000 289.000
47.99000 291.000
48.20000 259.000
48.41000 272.000
48.62000 270.000
48.83000 264.000
49.04000 253.000
49.25000 263.000
49.46000 270.000
49.67000 231.000
49.88000 256.000
50.09000 235.000
50.30000 256.000
50.51000 242.000
50.72000 252.000
50.93000 280.000
51.14000 268.000
51.35000 272.000
51.56000 268.000
51.77000 261.000
51.98000 273.000
52.19000 269.000
52.40000 250.000
52.61000 253.000
52.82000 274.000
53.03000 253.000
53.24000 270.000
53.45000 241.000
53.66000 255.000
53.87000 229.000
54.08000 251.000
54.29000 251.000
54.50000 265.000
54.71000 230.000
54.92000 255.000
55.13000 237.000
55.34000 237.000
55.55000 250.000
55.76000 230.000
55.97000 233.000
56.18000 256.000
56.39000 228.000
56.60000 248.000
56.81000 249.000
57.02000 234.000
57.23000 233.000
57.44000 228.000
57.65000 258.000
57.86000 279.000
58.07000 274.000
58.28000 273.000
58.49000 274.000
58.70000 253.000
58.91000 258.000
59.12000 237.000
59.33000 238.000
59.54000 219.000
59.75000 226.000
59.96000 204.000
60.17000 201.000
60.38000 191.000
60.59000 205.000
60.80000 193.000
61.01000 214.000
61.22000 199.000
61.43000 202.000
61.64000 196.000
61.85000 185.000
61.98500 208.000