Folder: phd-thesis/ISoD/xrd_data (part 6)

File: HSC026_nach410C_ranges_combined.xy
2.0 1460.0
2.21 1113.0
2.42 843.0
2.63 682.0
2.84 605.0
3.05 524.0
3.26 466.0
3.47 438.0
3.68 411.0
3.89 401.0
4.1 374.0
4.31 362.0
4.52 353.0
4.73 340.0
4.94 362.0
5.15 329.0
5.36 364.0
5.57 350.0
5.78 382.0
5.99 346.0
6.2 345.0
6.41 341.0
6.62 345.0
6.83 334.0
7.04 348.0
7.25 360.0
7.46 355.0
7.67 337.0
7.88 365.0
8.09 371.0
8.3 386.0
8.51 470.0
8.72 492.0
8.93 387.0
9.14 368.0
9.35 348.0
9.56 353.0
9.77 361.0
9.98 403.0
10.19 373.0
10.4 384.0
10.61 369.0
10.82 380.0
11.03 465.0
11.24 577.0
11.45 1020.0
11.66 1149.0
11.87 812.0
12.08 508.0
12.29 378.0
12.5 352.0
12.71 403.0
12.92 493.0
13.13 460.0
13.34 405.0
13.55 367.0
13.76 374.0
13.97 347.0
14.18 325.0
14.39 352.0
14.6 315.0
14.81 334.0
15.02 329.0
15.23 320.0
15.44 362.0
15.65 341.0
15.86 353.0
16.07 352.0
16.28 386.0
16.49 357.0
16.7 325.0
16.91 352.0
17.12 339.0
17.33 365.0
17.54 348.0
17.75 381.0
17.96 360.0
18.17 378.0
18.38 382.0
18.59 414.0
18.8 366.0
19.01 374.0
19.22 420.0
19.43 423.0
19.64 420.0
19.85 435.0
20.06 434.0
20.27 431.0
20.48 435.0
20.69 455.0
20.9 416.0
21.11 441.0
21.32 428.0
21.53 450.0
21.74 459.0
21.95 440.0
22.16 443.0
22.37 437.0
22.58 451.0
22.79 475.0
23.0 477.0
23.21 512.0
23.42 514.0
23.63 500.0
23.84 527.0
24.05 521.0
24.26 558.0
24.47 562.0
24.68 604.0
24.89 610.0
25.1 772.0
25.31 848.0
25.52 1134.0
25.73 1046.0
25.94 715.0
26.15 711.0
26.36 677.0
26.57 700.0
26.78 752.0
26.99 804.0
27.2 1044.0
27.41 1209.0
27.62 1106.0
27.83 687.0
28.04 549.0
28.25 512.0
28.46 514.0
28.67 440.0
28.88 433.0
29.09 431.0
29.3 423.0
29.51 398.0
29.72 431.0
29.93 429.0
30.14 450.0
30.35 486.0
30.56 439.0
30.77 448.0
30.98 374.0
31.19 381.0
31.4 369.0
31.61 366.0
31.82 339.0
32.03 347.0
32.24 336.0
32.45 286.0
32.66 309.0
32.87 325.0
33.08 300.0
33.29 286.0
33.5 306.0
33.71 305.0
33.92 276.0
34.13 286.0
34.34 258.0
34.55 285.0
34.76 290.0
34.97 255.0
35.18 268.0
35.39 239.0
35.6 286.0
35.81 238.0
36.02 238.0
36.23 233.0
36.44 244.0
36.65 240.0
36.86 216.0
37.07 216.0
37.28 219.0
37.49 218.0
37.7 197.0
37.91 215.0
38.12 198.0
38.33 202.0
38.54 192.0
38.75 227.0
38.96 235.0
39.17 201.0
39.38 204.0
39.59 234.0
39.8 228.0
40.01 222.0
40.22 229.0
40.43 230.0
40.64 240.0
40.85 230.0
41.06 258.0
41.27 234.0
41.48 216.0
41.69 205.0
41.9 201.0
42.11 220.0
42.32 213.0
42.53 199.0
42.74 195.0
42.95 202.0
43.16 209.0
43.37 185.0
43.58 227.0
43.79 207.0
44.0 213.0
44.21 203.0
44.42 186.0
44.63 192.0
44.84 195.0
45.05 185.0
45.26 189.0
45.47 199.0
45.68 188.0
45.89 202.0
46.1 218.0
46.31 183.0
46.52 196.0
46.73 180.0
46.94 192.0
47.15 182.0
47.36 171.0
47.57 177.0
47.78 184.0
47.99 165.0
48.2 177.0
48.41 163.0
48.62 176.0
48.83 173.0
49.04 173.0
49.25 175.0
49.46 169.0
49.67 166.0
49.88 163.0
50.09 167.0
50.3 178.0
50.51 143.0
50.72 183.0
50.93 152.0
51.14 158.0
51.35 165.0
51.56 161.0
51.77 175.0
51.98 174.0
52.19 193.0
52.4 163.0
52.61 179.0
52.82 161.0
53.03 154.0
53.24 171.0
53.45 158.0
53.66 176.0
53.87 165.0
54.08 160.0
54.29 169.0
54.5 162.0
54.71 156.0
54.92 162.0
55.13 156.0
55.34 160.0
55.55 134.0
55.76 166.0
55.97 165.0
56.18 151.0
56.39 156.0
56.6 176.0
56.81 178.0
57.02 136.0
57.23 154.0
57.44 149.0
57.65 147.0
57.86 159.0
58.07 158.0
58.28 146.0
58.49 144.0
58.7 158.0
58.91 154.0
59.12 147.0
59.33 157.0
59.54 153.0
59.75 147.0
59.96 155.0
60.17 136.0
60.38 157.0
60.59 144.0
60.8 128.0
61.01 151.0
61.22 160.0
61.43 142.0
61.64 138.0
61.85 141.0
61.985 134.0

File: HSC026_nach_Photokat..xy
2.00000 514.000
2.21000 425.000
2.42000 354.000
2.63000 303.000
2.84000 275.000
3.05000 237.000
3.26000 237.000
3.47000 209.000
3.68000 221.000
3.89000 191.000
4.10000 207.000
4.31000 211.000
4.52000 197.000
4.73000 209.000
4.94000 216.000
5.15000 178.000
5.36000 207.000
5.57000 213.000
5.78000 189.000
5.99000 222.000
6.20000 203.000
6.41000 209.000
6.62000 198.000
6.83000 212.000
7.04000 187.000
7.25000 223.000
7.46000 197.000
7.67000 199.000
7.88000 209.000
8.09000 221.000
8.30000 227.000
8.51000 264.000
8.72000 251.000
8.93000 208.000
9.14000 241.000
9.35000 217.000
9.56000 207.000
9.77000 236.000
9.98000 243.000
10.19000 223.000
10.40000 225.000
10.61000 234.000
10.82000 223.000
11.03000 230.000
11.24000 312.000
11.45000 583.000
11.66000 559.000
11.87000 411.000
12.08000 304.000
12.29000 219.000
12.50000 199.000
12.71000 213.000
12.92000 286.000
13.13000 247.000
13.34000 243.000
13.55000 227.000
13.76000 204.000
13.97000 207.000
14.18000 226.000
14.39000 200.000
14.60000 197.000
14.81000 198.000
15.02000 214.000
15.23000 200.000
15.44000 200.000
15.65000 216.000
15.86000 217.000
16.07000 214.000
16.28000 245.000
16.49000 231.000
16.70000 223.000
16.91000 220.000
17.12000 201.000
17.33000 215.000
17.54000 248.000
17.75000 235.000
17.96000 215.000
18.17000 235.000
18.38000 248.000
18.59000 240.000
18.80000 255.000
19.01000 287.000
19.22000 267.000
19.43000 250.000
19.64000 291.000
19.85000 242.000
20.06000 267.000
20.27000 260.000
20.48000 277.000
20.69000 259.000
20.90000 263.000
21.11000 288.000
21.32000 279.000
21.53000 289.000
21.74000 321.000
21.95000 272.000
22.16000 281.000
22.37000 292.000
22.58000 310.000
22.79000 309.000
23.00000 304.000
23.21000 306.000
23.42000 349.000
23.63000 329.000
23.84000 323.000
24.05000 388.000
24.26000 322.000
24.47000 323.000
24.68000 365.000
24.89000 393.000
25.10000 410.000
25.31000 499.000
25.52000 631.000
25.73000 511.000
25.94000 438.000
26.15000 358.000
26.36000 391.000
26.57000 423.000
26.78000 414.000
26.99000 494.000
27.20000 541.000
27.41000 685.000
27.62000 555.000
27.83000 391.000
28.04000 328.000
28.25000 311.000
28.46000 294.000
28.67000 260.000
28.88000 285.000
29.09000 275.000
29.30000 279.000
29.51000 261.000
29.72000 286.000
29.93000 267.000
30.14000 262.000
30.35000 315.000
30.56000 274.000
30.77000 257.000
30.98000 256.000
31.19000 246.000
31.40000 223.000
31.61000 221.000
31.82000 215.000
32.03000 249.000
32.24000 213.000
32.45000 233.000
32.66000 209.000
32.87000 212.000
33.08000 179.000
33.29000 193.000
33.50000 201.000
33.71000 184.000
33.92000 177.000
34.13000 179.000
34.34000 187.000
34.55000 179.000
34.76000 184.000
34.97000 158.000
35.18000 177.000
35.39000 172.000
35.60000 168.000
35.81000 148.000
36.02000 165.000
36.23000 151.000
36.44000 148.000
36.65000 179.000
36.86000 144.000
37.07000 142.000
37.28000 124.000
37.49000 122.000
37.70000 131.000
37.91000 130.000
38.12000 137.000
38.33000 149.000
38.54000 150.000
38.75000 137.000
38.96000 143.000
39.17000 154.000
39.38000 136.000
39.59000 136.000
39.80000 141.000
40.01000 148.000
40.22000 151.000
40.43000 145.000
40.64000 154.000
40.85000 141.000
41.06000 141.000
41.27000 150.000
41.48000 144.000
41.69000 131.000
41.90000 147.000
42.11000 152.000
42.32000 127.000
42.53000 117.000
42.74000 139.000
42.95000 136.000
43.16000 125.000
43.37000 126.000
43.58000 120.000
43.79000 125.000
44.00000 114.000
44.21000 128.000
44.42000 140.000
44.63000 117.000
44.84000 128.000
45.05000 130.000
45.26000 122.000
45.47000 116.000
45.68000 120.000
45.89000 111.000
46.10000 112.000
46.31000 122.000
46.52000 122.000
46.73000 127.000
46.94000 124.000
47.15000 133.000
47.36000 105.000
47.57000 120.000
47.78000 110.000
47.99000 134.000
48.20000 127.000
48.41000 103.000
48.62000 114.000
48.83000 107.000
49.04000 105.000
49.25000 126.000
49.46000 113.000
49.67000 99.000
49.88000 106.000
50.09000 127.000
50.30000 104.000
50.51000 126.000
50.72000 96.000
50.93000 114.000
51.14000 103.000
51.35000 104.000
51.56000 102.000
51.77000 110.000
51.98000 88.000
52.19000 111.000
52.40000 105.000
52.61000 110.000
52.82000 111.000
53.03000 119.000
53.24000 111.000
53.45000 104.000
53.66000 111.000
53.87000 99.000
54.08000 117.000
54.29000 104.000
54.50000 105.000
54.71000 103.000
54.92000 104.000
55.13000 118.000
55.34000 111.000
55.55000 93.000
55.76000 105.000
55.97000 91.000
56.18000 95.000
56.39000 117.000
56.60000 97.000
56.81000 96.000
57.02000 106.000
57.23000 99.000
57.44000 107.000
57.65000 97.000
57.86000 117.000
58.07000 112.000
58.28000 84.000
58.49000 102.000
58.70000 105.000
58.91000 108.000
59.12000 103.000
59.33000 117.000
59.54000 105.000
59.75000 107.000
59.96000 96.000
60.17000 99.000
60.38000 88.000
60.59000 108.000
60.80000 101.000
61.01000 104.000
61.22000 128.000
61.43000 104.000
61.64000 101.000
61.85000 86.000
61.98500 96.000

File: HSC026_nachH2O_range_1.xy
2.00000 467.000
2.21000 332.000
2.42000 288.000
2.63000 248.000
2.84000 204.000
3.05000 192.000
3.26000 168.000
3.47000 156.000
3.68000 161.000
3.89000 149.000
4.10000 160.000
4.31000 166.000
4.52000 146.000
4.73000 153.000
4.94000 154.000
5.15000 157.000
5.36000 156.000
5.57000 150.000
5.78000 141.000
5.99000 155.000
6.20000 135.000
6.41000 155.000
6.62000 145.000
6.83000 151.000
7.04000 154.000
7.25000 151.000
7.46000 128.000
7.67000 136.000
7.88000 156.000
8.09000 149.000
8.30000 167.000
8.51000 215.000
8.72000 171.000
8.93000 162.000
9.14000 136.000
9.35000 145.000
9.56000 146.000
9.77000 163.000
9.98000 166.000
10.19000 144.000
10.40000 160.000
10.61000 149.000
10.82000 160.000
11.03000 183.000
11.24000 215.000
11.45000 381.000
11.66000 406.000
11.87000 294.000
12.08000 180.000
12.29000 149.000
12.50000 168.000
12.71000 195.000
12.92000 199.000
13.13000 181.000
13.34000 182.000
13.55000 169.000
13.76000 150.000
13.97000 147.000
14.18000 165.000
14.39000 143.000
14.60000 162.000
14.81000 163.000
15.02000 157.000
15.23000 140.000
15.44000 151.000
15.65000 165.000
15.86000 158.000
16.07000 150.000
16.28000 157.000
16.49000 154.000
16.70000 161.000
16.91000 156.000
17.12000 152.000
17.33000 159.000
17.54000 167.000
17.75000 172.000
17.96000 168.000
18.17000 186.000
18.38000 188.000
18.59000 172.000
18.80000 197.000
19.01000 203.000
19.22000 192.000
19.43000 194.000
19.64000 201.000
19.85000 201.000
20.06000 198.000
20.27000 215.000
20.48000 219.000
20.69000 216.000
20.90000 204.000
21.11000 215.000
21.32000 226.000
21.53000 226.000
21.74000 195.000
21.95000 227.000
22.16000 235.000
22.37000 226.000
22.58000 225.000
22.79000 218.000
23.00000 207.000
23.21000 256.000
23.42000 230.000
23.63000 234.000
23.84000 255.000
24.05000 249.000
24.26000 257.000
24.47000 239.000
24.68000 280.000
24.89000 273.000
25.10000 281.000
25.31000 375.000
25.52000 467.000
25.73000 375.000
25.94000 311.000
26.15000 277.000
26.36000 294.000
26.57000 301.000
26.78000 294.000
26.99000 351.000
27.20000 402.000
27.41000 483.000
27.62000 398.000
27.83000 289.000
28.04000 248.000
28.25000 223.000
28.46000 228.000
28.67000 207.000
28.88000 203.000
29.09000 225.000
29.30000 214.000
29.51000 184.000
29.72000 206.000
29.93000 202.000
30.14000 206.000
30.35000 213.000
30.56000 226.000
30.77000 199.000
30.98000 190.000
31.19000 184.000
31.40000 177.000
31.61000 170.000
31.82000 144.000
32.03000 170.000
32.24000 169.000
32.45000 159.000
32.66000 146.000
32.87000 138.000
33.08000 142.000
33.29000 138.000
33.50000 152.000
33.71000 161.000
33.92000 140.000
34.13000 148.000
34.34000 130.000
34.55000 124.000
34.76000 139.000
34.97000 137.000
35.18000 123.000
35.39000 133.000
35.60000 129.000
35.81000 116.000
36.02000 115.000
36.23000 112.000
36.44000 100.000
36.65000 102.000
36.86000 118.000
37.07000 104.000
37.28000 103.000
37.49000 103.000
37.70000 97.000
37.91000 104.000
38.12000 105.000
38.33000 98.000
38.54000 81.000
38.75000 95.000
38.96000 93.000
39.17000 114.000
39.38000 101.000
39.59000 95.000
39.80000 104.000
40.01000 99.000
40.22000 98.000
40.43000 106.000
40.64000 93.000
40.85000 113.000
41.06000 100.000
41.27000 97.000
41.48000 96.000
41.69000 103.000
41.90000 102.000
42.11000 102.000
42.32000 100.000
42.53000 101.000
42.74000 97.000
42.95000 105.000
43.16000 92.000
43.37000 97.000
43.58000 96.000
43.79000 96.000
44.00000 79.000
44.21000 95.000
44.42000 93.000
44.63000 77.000
44.84000 92.000
45.05000 102.000
45.26000 97.000
45.47000 94.000
45.68000 89.000
45.89000 95.000
46.10000 86.000
46.31000 85.000
46.52000 71.000
46.73000 88.000
46.94000 83.000
47.15000 80.000
47.36000 79.000
47.57000 83.000
47.78000 75.000
47.99000 77.000
48.20000 83.000
48.41000 88.000
48.62000 88.000
48.83000 76.000
49.04000 70.000
49.25000 84.000
49.46000 80.000
49.67000 67.000
49.88000 80.000
50.09000 73.000
50.30000 77.000
50.51000 75.000
50.72000 81.000
50.93000 77.000
51.14000 79.000
51.35000 75.000
51.56000 77.000
51.77000 80.000
51.98000 80.000
52.19000 73.000
52.40000 70.000
52.61000 79.000
52.82000 87.000
53.03000 84.000
53.24000 74.000
53.45000 73.000
53.66000 62.000
53.87000 63.000
54.08000 87.000
54.29000 69.000
54.50000 61.000
54.71000 72.000
54.92000 75.000
55.13000 89.000
55.34000 86.000
55.55000 62.000
55.76000 77.000
55.97000 84.000
56.18000 81.000
56.39000 73.000
56.60000 80.000
56.81000 75.000
57.02000 82.000
57.23000 68.000
57.44000 87.000
57.65000 64.000
57.86000 81.000
58.07000 66.000
58.28000 65.000
58.49000 58.000
58.70000 71.000
58.91000 65.000
59.12000 82.000
59.33000 83.000
59.54000 70.000
59.75000 56.000
59.96000 65.000
60.17000 79.000
60.38000 77.000
60.59000 82.000
60.80000 61.000
61.01000 67.000
61.22000 68.000
61.43000 78.000
61.64000 70.000
61.85000 61.000
61.98500 69.000

File: HSC026_nachH2O_range_2.xy
2.00000 419.000
2.21000 345.000
2.42000 266.000
2.63000 247.000
2.84000 212.000
3.05000 185.000
3.26000 160.000
3.47000 157.000
3.68000 148.000
3.89000 150.000
4.10000 143.000
4.31000 173.000
4.52000 148.000
4.73000 140.000
4.94000 154.000
5.15000 132.000
5.36000 143.000
5.57000 149.000
5.78000 148.000
5.99000 134.000
6.20000 148.000
6.41000 149.000
6.62000 146.000
6.83000 160.000
7.04000 138.000
7.25000 154.000
7.46000 139.000
7.67000 130.000
7.88000 145.000
8.09000 160.000
8.30000 167.000
8.51000 197.000
8.72000 174.000
8.93000 166.000
9.14000 147.000
9.35000 168.000
9.56000 150.000
9.77000 150.000
9.98000 184.000
10.19000 134.000
10.40000 146.000
10.61000 162.000
10.82000 143.000
11.03000 184.000
11.24000 213.000
11.45000 411.000
11.66000 387.000
11.87000 291.000
12.08000 184.000
12.29000 151.000
12.50000 159.000
12.71000 169.000
12.92000 177.000
13.13000 172.000
13.34000 186.000
13.55000 148.000
13.76000 148.000
13.97000 146.000
14.18000 160.000
14.39000 155.000
14.60000 162.000
14.81000 150.000
15.02000 151.000
15.23000 139.000
15.44000 133.000
15.65000 164.000
15.86000 169.000
16.07000 158.000
16.28000 176.000
16.49000 174.000
16.70000 149.000
16.91000 155.000
17.12000 157.000
17.33000 175.000
17.54000 168.000
17.75000 184.000
17.96000 174.000
18.17000 167.000
18.38000 165.000
18.59000 188.000
18.80000 189.000
19.01000 197.000
19.22000 195.000
19.43000 194.000
19.64000 207.000
19.85000 168.000
20.06000 195.000
20.27000 193.000
20.48000 198.000
20.69000 224.000
20.90000 206.000
21.11000 224.000
21.32000 225.000
21.53000 219.000
21.74000 204.000
21.95000 203.000
22.16000 209.000
22.37000 241.000
22.58000 208.000
22.79000 201.000
23.00000 242.000
23.21000 244.000
23.42000 209.000
23.63000 220.000
23.84000 214.000
24.05000 219.000
24.26000 243.000
24.47000 259.000
24.68000 247.000
24.89000 281.000
25.10000 319.000
25.31000 357.000
25.52000 429.000
25.73000 353.000
25.94000 298.000
26.15000 269.000
26.36000 261.000
26.57000 307.000
26.78000 280.000
26.99000 361.000
27.20000 394.000
27.41000 473.000
27.62000 387.000
27.83000 316.000
28.04000 262.000
28.25000 220.000
28.46000 222.000
28.67000 204.000
28.88000 202.000
29.09000 216.000
29.30000 200.000
29.51000 197.000
29.72000 210.000
29.93000 206.000
30.14000 203.000
30.35000 231.000
30.56000 228.000
30.77000 214.000
30.98000 180.000
31.19000 180.000
31.40000 160.000
31.61000 186.000
31.82000 162.000
32.03000 137.000
32.24000 166.000
32.45000 135.000
32.66000 150.000
32.87000 166.000
33.08000 146.000
33.29000 137.000
33.50000 139.000
33.71000 158.000
33.92000 125.000
34.13000 137.000
34.34000 146.000
34.55000 113.000
34.76000 123.000
34.97000 139.000
35.18000 135.000
35.39000 131.000
35.60000 134.000
35.81000 115.000
36.02000 98.000
36.23000 119.000
36.44000 95.000
36.65000 113.000
36.86000 96.000
37.07000 121.000
37.28000 94.000
37.49000 108.000
37.70000 104.000
37.91000 90.000
38.12000 97.000
38.33000 111.000
38.54000 95.000
38.75000 92.000
38.96000 93.000
39.17000 98.000
39.38000 114.000
39.59000 99.000
39.80000 104.000
40.01000 108.000
40.22000 107.000
40.43000 109.000
40.64000 88.000
40.85000 110.000
41.06000 90.000
41.27000 98.000
41.48000 109.000
41.69000 115.000
41.90000 83.000
42.11000 99.000
42.32000 105.000
42.53000 84.000
42.74000 84.000
42.95000 86.000
43.16000 94.000
43.37000 101.000
43.58000 97.000
43.79000 85.000
44.00000 87.000
44.21000 94.000
44.42000 118.000
44.63000 93.000
44.84000 103.000
45.05000 89.000
45.26000 93.000
45.47000 99.000
45.68000 98.000
45.89000 99.000
46.10000 89.000
46.31000 90.000
46.52000 83.000
46.73000 93.000
46.94000 87.000
47.15000 91.000
47.36000 72.000
47.57000 88.000
47.78000 81.000
47.99000 73.000
48.20000 74.000
48.41000 87.000
48.62000 79.000
48.83000 90.000
49.04000 90.000
49.25000 76.000
49.46000 86.000
49.67000 89.000
49.88000 78.000
50.09000 79.000
50.30000 67.000
50.51000 88.000
50.72000 85.000
50.93000 71.000
51.14000 86.000
51.35000 70.000
51.56000 69.000
51.77000 81.000
51.98000 73.000
52.19000 80.000
52.40000 72.000
52.61000 87.000
52.82000 73.000
53.03000 75.000
53.24000 87.000
53.45000 75.000
53.66000 90.000
53.87000 81.000
54.08000 82.000
54.29000 76.000
54.50000 71.000
54.71000 81.000
54.92000 68.000
55.13000 77.000
55.34000 80.000
55.55000 73.000
55.76000 65.000
55.97000 81.000
56.18000 66.000
56.39000 85.000
56.60000 81.000
56.81000 74.000
57.02000 53.000
57.23000 71.000
57.44000 85.000
57.65000 70.000
57.86000 66.000
58.07000 77.000
58.28000 62.000
58.49000 69.000
58.70000 70.000
58.91000 63.000
59.12000 63.000
59.33000 70.000
59.54000 69.000
59.75000 67.000
59.96000 69.000
60.17000 76.000
60.38000 64.000
60.59000 76.000
60.80000 67.000
61.01000 68.000
61.22000 66.000
61.43000 77.000
61.64000 66.000
61.85000 83.000
61.98500 69.000

File: HSC026_nachH2O_ranges_combined.xy
2.0 886.0
2.21 677.0
2.42 554.0
2.63 495.0
2.84 416.0
3.05 377.0
3.26 328.0
3.47 313.0
3.68 309.0
3.89 299.0
4.1 303.0
4.31 339.0
4.52 294.0
4.73 293.0
4.94 308.0
5.15 289.0
5.36 299.0
5.57 299.0
5.78 289.0
5.99 289.0
6.2 283.0
6.41 304.0
6.62 291.0
6.83 311.0
7.04 292.0
7.25 305.0
7.46 267.0
7.67 266.0
7.88 301.0
8.09 309.0
8.3 334.0
8.51 412.0
8.72 345.0
8.93 328.0
9.14 283.0
9.35 313.0
9.56 296.0
9.77 313.0
9.98 350.0
10.19 278.0
10.4 306.0
10.61 311.0
10.82 303.0
11.03 367.0
11.24 428.0
11.45 792.0
11.66 793.0
11.87 585.0
12.08 364.0
12.29 300.0
12.5 327.0
12.71 364.0
12.92 376.0
13.13 353.0
13.34 368.0
13.55 317.0
13.76 298.0
13.97 293.0
14.18 325.0
14.39 298.0
14.6 324.0
14.81 313.0
15.02 308.0
15.23 279.0
15.44 284.0
15.65 329.0
15.86 327.0
16.07 308.0
16.28 333.0
16.49 328.0
16.7 310.0
16.91 311.0
17.12 309.0
17.33 334.0
17.54 335.0
17.75 356.0
17.96 342.0
18.17 353.0
18.38 353.0
18.59 360.0
18.8 386.0
19.01 400.0
19.22 387.0
19.43 388.0
19.64 408.0
19.85 369.0
20.06 393.0
20.27 408.0
20.48 417.0
20.69 440.0
20.9 410.0
21.11 439.0
21.32 451.0
21.53 445.0
21.74 399.0
21.95 430.0
22.16 444.0
22.37 467.0
22.58 433.0
22.79 419.0
23.0 449.0
23.21 500.0
23.42 439.0
23.63 454.0
23.84 469.0
24.05 468.0
24.26 500.0
24.47 498.0
24.68 527.0
24.89 554.0
25.1 600.0
25.31 732.0
25.52 896.0
25.73 728.0
25.94 609.0
26.15 546.0
26.36 555.0
26.57 608.0
26.78 574.0
26.99 712.0
27.2 796.0
27.41 956.0
27.62 785.0
27.83 605.0
28.04 510.0
28.25 443.0
28.46 450.0
28.67 411.0
28.88 405.0
29.09 441.0
29.3 414.0
29.51 381.0
29.72 416.0
29.93 408.0
30.14 409.0
30.35 444.0
30.56 454.0
30.77 413.0
30.98 370.0
31.19 364.0
31.4 337.0
31.61 356.0
31.82 306.0
32.03 307.0
32.24 335.0
32.45 294.0
32.66 296.0
32.87 304.0
33.08 288.0
33.29 275.0
33.5 291.0
33.71 319.0
33.92 265.0
34.13 285.0
34.34 276.0
34.55 237.0
34.76 262.0
34.97 276.0
35.18 258.0
35.39 264.0
35.6 263.0
35.81 231.0
36.02 213.0
36.23 231.0
36.44 195.0
36.65 215.0
36.86 214.0
37.07 225.0
37.28 197.0
37.49 211.0
37.7 201.0
37.91 194.0
38.12 202.0
38.33 209.0
38.54 176.0
38.75 187.0
38.96 186.0
39.17 212.0
39.38 215.0
39.59 194.0
39.8 208.0
40.01 207.0
40.22 205.0
40.43 215.0
40.64 181.0
40.85 223.0
41.06 190.0
41.27 195.0
41.48 205.0
41.69 218.0
41.9 185.0
42.11 201.0
42.32 205.0
42.53 185.0
42.74 181.0
42.95 191.0
43.16 186.0
43.37 198.0
43.58 193.0
43.79 181.0
44.0 166.0
44.21 189.0
44.42 211.0
44.63 170.0
44.84 195.0
45.05 191.0
45.26 190.0
45.47 193.0
45.68 187.0
45.89 194.0
46.1 175.0
46.31 175.0
46.52 154.0
46.73 181.0
46.94 170.0
47.15 171.0
47.36 151.0
47.57 171.0
47.78 156.0
47.99 150.0
48.2 157.0
48.41 175.0
48.62 167.0
48.83 166.0
49.04 160.0
49.25 160.0
49.46 166.0
49.67 156.0
49.88 158.0
50.09 152.0
50.3 144.0
50.51 163.0
50.72 166.0
50.93 148.0
51.14 165.0
51.35 145.0
51.56 146.0
51.77 161.0
51.98 153.0
52.19 153.0
52.4 142.0
52.61 166.0
52.82 160.0
53.03 159.0
53.24 161.0
53.45 148.0
53.66 152.0
53.87 144.0
54.08 169.0
54.29 145.0
54.5 132.0
54.71 153.0
54.92 143.0
55.13 166.0
55.34 166.0
55.55 135.0
55.76 142.0
55.97 165.0
56.18 147.0
56.39 158.0
56.6 161.0
56.81 149.0
57.02 135.0
57.23 139.0
57.44 172.0
57.65 134.0
57.86 147.0
58.07 143.0
58.28 127.0
58.49 127.0
58.7 141.0
58.91 128.0
59.12 145.0
59.33 153.0
59.54 139.0
59.75 123.0
59.96 134.0
60.17 155.0
60.38 141.0
60.59 158.0
60.8 128.0
61.01 135.0
61.22 134.0
61.43 155.0
61.64 136.0
61.85 144.0
61.985 138.0