Folder: phd-thesis/ISoD/xrd_data (part 8)

File: HSC034_extraktion.xy
2.00000 2.000
2.21000 1.000
2.42000 1.000
2.63000 2.000
2.84000 13.000
3.05000 239.000
3.26000 221.000
3.47000 212.000
3.68000 206.000
3.89000 208.000
4.10000 245.000
4.31000 203.000
4.52000 223.000
4.73000 234.000
4.94000 199.000
5.15000 226.000
5.36000 238.000
5.57000 248.000
5.78000 257.000
5.99000 234.000
6.20000 266.000
6.41000 256.000
6.62000 266.000
6.83000 278.000
7.04000 261.000
7.25000 290.000
7.46000 297.000
7.67000 298.000
7.88000 284.000
8.09000 303.000
8.30000 319.000
8.51000 358.000
8.72000 332.000
8.93000 319.000
9.14000 318.000
9.35000 315.000
9.56000 318.000
9.77000 313.000
9.98000 333.000
10.19000 349.000
10.40000 349.000
10.61000 502.000
10.82000 450.000
11.03000 412.000
11.24000 444.000
11.45000 497.000
11.66000 450.000
11.87000 457.000
12.08000 832.000
12.29000 294.000
12.50000 294.000
12.71000 385.000
12.92000 321.000
13.13000 307.000
13.34000 288.000
13.55000 267.000
13.76000 274.000
13.97000 271.000
14.18000 233.000
14.39000 276.000
14.60000 276.000
14.81000 282.000
15.02000 247.000
15.23000 261.000
15.44000 246.000
15.65000 266.000
15.86000 249.000
16.07000 257.000
16.28000 279.000
16.49000 249.000
16.70000 267.000
16.91000 275.000
17.12000 248.000
17.33000 284.000
17.54000 260.000
17.75000 247.000
17.96000 263.000
18.17000 269.000
18.38000 265.000
18.59000 242.000
18.80000 268.000
19.01000 260.000
19.22000 271.000
19.43000 257.000
19.64000 251.000
19.85000 303.000
20.06000 262.000
20.27000 241.000
20.48000 264.000
20.69000 266.000
20.90000 256.000
21.11000 279.000
21.32000 270.000
21.53000 292.000
21.74000 270.000
21.95000 282.000
22.16000 285.000
22.37000 286.000
22.58000 312.000
22.79000 306.000
23.00000 298.000
23.21000 340.000
23.42000 301.000
23.63000 304.000
23.84000 296.000
24.05000 330.000
24.26000 320.000
24.47000 352.000
24.68000 352.000
24.89000 474.000
25.10000 473.000
25.31000 475.000
25.52000 591.000
25.73000 500.000
25.94000 461.000
26.15000 497.000
26.36000 500.000
26.57000 575.000
26.78000 590.000
26.99000 809.000
27.20000 1391.000
27.41000 607.000
27.62000 447.000
27.83000 373.000
28.04000 333.000
28.25000 306.000
28.46000 296.000
28.67000 262.000
28.88000 248.000
29.09000 258.000
29.30000 257.000
29.51000 241.000
29.72000 259.000
29.93000 251.000
30.14000 268.000
30.35000 319.000
30.56000 274.000
30.77000 227.000
30.98000 227.000
31.19000 218.000
31.40000 209.000
31.61000 213.000
31.82000 207.000
32.03000 211.000
32.24000 222.000
32.45000 184.000
32.66000 200.000
32.87000 194.000
33.08000 191.000
33.29000 173.000
33.50000 189.000
33.71000 177.000
33.92000 177.000
34.13000 177.000
34.34000 164.000
34.55000 189.000
34.76000 198.000
34.97000 171.000
35.18000 167.000
35.39000 168.000
35.60000 156.000
35.81000 147.000
36.02000 153.000
36.23000 134.000
36.44000 143.000
36.65000 156.000
36.86000 142.000
37.07000 161.000
37.28000 129.000
37.49000 141.000
37.70000 138.000
37.91000 134.000
38.12000 127.000
38.33000 146.000
38.54000 144.000
38.75000 144.000
38.96000 149.000
39.17000 122.000
39.38000 131.000
39.59000 170.000
39.80000 138.000
40.01000 141.000
40.22000 154.000
40.43000 142.000
40.64000 143.000
40.85000 139.000
41.06000 131.000
41.27000 155.000
41.48000 141.000
41.69000 137.000
41.90000 152.000
42.11000 134.000
42.32000 126.000
42.53000 132.000
42.74000 114.000
42.95000 148.000
43.16000 148.000
43.37000 140.000
43.58000 138.000
43.79000 107.000
44.00000 130.000
44.21000 117.000
44.42000 126.000
44.63000 127.000
44.84000 118.000
45.05000 122.000
45.26000 104.000
45.47000 126.000
45.68000 141.000
45.89000 125.000
46.10000 131.000
46.31000 127.000
46.52000 141.000
46.73000 126.000
46.94000 131.000
47.15000 121.000
47.36000 122.000
47.57000 111.000
47.78000 133.000
47.99000 119.000
48.20000 109.000
48.41000 129.000
48.62000 116.000
48.83000 109.000
49.04000 107.000
49.25000 113.000
49.46000 125.000
49.67000 107.000
49.88000 108.000
50.09000 94.000
50.30000 90.000
50.51000 106.000
50.72000 92.000
50.93000 100.000
51.14000 110.000
51.35000 113.000
51.56000 101.000
51.77000 102.000
51.98000 95.000
52.19000 109.000
52.40000 98.000
52.61000 99.000
52.82000 106.000
53.03000 97.000
53.24000 114.000
53.45000 101.000
53.66000 110.000
53.87000 128.000
54.08000 104.000
54.29000 112.000
54.50000 97.000
54.71000 119.000
54.92000 116.000
55.13000 94.000
55.34000 97.000
55.55000 93.000
55.76000 97.000
55.97000 118.000
56.18000 95.000
56.39000 103.000
56.60000 96.000
56.81000 103.000
57.02000 92.000
57.23000 98.000
57.44000 94.000
57.65000 100.000
57.86000 94.000
58.07000 106.000
58.28000 94.000
58.49000 74.000
58.70000 91.000
58.91000 83.000
59.12000 95.000
59.33000 88.000
59.54000 89.000
59.75000 98.000
59.96000 95.000
60.17000 86.000
60.38000 86.000
60.59000 82.000
60.80000 77.000
61.01000 91.000
61.22000 68.000
61.43000 86.000
61.64000 78.000
61.85000 83.000
61.98500 85.000

File: HSC036_Blindprobe.xy
2.00000 2.000
2.21000 2.000
2.42000 3.000
2.63000 3.000
2.84000 27.000
3.05000 143.000
3.26000 140.000
3.47000 140.000
3.68000 165.000
3.89000 179.000
4.10000 201.000
4.31000 205.000
4.52000 206.000
4.73000 207.000
4.94000 240.000
5.15000 234.000
5.36000 244.000
5.57000 228.000
5.78000 228.000
5.99000 265.000
6.20000 237.000
6.41000 250.000
6.62000 244.000
6.83000 273.000
7.04000 281.000
7.25000 250.000
7.46000 290.000
7.67000 280.000
7.88000 285.000
8.09000 269.000
8.30000 290.000
8.51000 326.000
8.72000 433.000
8.93000 2141.000
9.14000 347.000
9.35000 336.000
9.56000 315.000
9.77000 309.000
9.98000 317.000
10.19000 430.000
10.40000 301.000
10.61000 281.000
10.82000 282.000
11.03000 307.000
11.24000 292.000
11.45000 301.000
11.66000 294.000
11.87000 275.000
12.08000 326.000
12.29000 390.000
12.50000 817.000
12.71000 2712.000
12.92000 332.000
13.13000 307.000
13.34000 300.000
13.55000 267.000
13.76000 321.000
13.97000 294.000
14.18000 306.000
14.39000 293.000
14.60000 335.000
14.81000 471.000
15.02000 290.000
15.23000 309.000
15.44000 349.000
15.65000 654.000
15.86000 299.000
16.07000 301.000
16.28000 273.000
16.49000 299.000
16.70000 285.000
16.91000 316.000
17.12000 313.000
17.33000 321.000
17.54000 304.000
17.75000 293.000
17.96000 398.000
18.17000 286.000
18.38000 313.000
18.59000 295.000
18.80000 301.000
19.01000 326.000
19.22000 319.000
19.43000 313.000
19.64000 339.000
19.85000 313.000
20.06000 307.000
20.27000 310.000
20.48000 292.000
20.69000 294.000
20.90000 327.000
21.11000 340.000
21.32000 374.000
21.53000 355.000
21.74000 341.000
21.95000 608.000
22.16000 307.000
22.37000 325.000
22.58000 328.000
22.79000 366.000
23.00000 335.000
23.21000 330.000
23.42000 344.000
23.63000 317.000
23.84000 333.000
24.05000 623.000
24.26000 374.000
24.47000 491.000
24.68000 436.000
24.89000 485.000
25.10000 775.000
25.31000 1766.000
25.52000 1121.000
25.73000 404.000
25.94000 416.000
26.15000 379.000
26.36000 436.000
26.57000 851.000
26.78000 388.000
26.99000 505.000
27.20000 419.000
27.41000 528.000
27.62000 3515.000
27.83000 919.000
28.04000 426.000
28.25000 407.000
28.46000 400.000
28.67000 361.000
28.88000 824.000
29.09000 465.000
29.30000 290.000
29.51000 356.000
29.72000 378.000
29.93000 295.000
30.14000 289.000
30.35000 279.000
30.56000 270.000
30.77000 256.000
30.98000 285.000
31.19000 292.000
31.40000 276.000
31.61000 292.000
31.82000 245.000
32.03000 239.000
32.24000 260.000
32.45000 219.000
32.66000 239.000
32.87000 224.000
33.08000 246.000
33.29000 213.000
33.50000 245.000
33.71000 288.000
33.92000 221.000
34.13000 212.000
34.34000 470.000
34.55000 218.000
34.76000 200.000
34.97000 359.000
35.18000 233.000
35.39000 180.000
35.60000 174.000
35.81000 188.000
36.02000 178.000
36.23000 179.000
36.44000 163.000
36.65000 188.000
36.86000 184.000
37.07000 159.000
37.28000 158.000
37.49000 200.000
37.70000 183.000
37.91000 178.000
38.12000 152.000
38.33000 154.000
38.54000 194.000
38.75000 178.000
38.96000 243.000
39.17000 169.000
39.38000 152.000
39.59000 155.000
39.80000 215.000
40.01000 183.000
40.22000 184.000
40.43000 201.000
40.64000 212.000
40.85000 159.000
41.06000 188.000
41.27000 220.000
41.48000 177.000
41.69000 344.000
41.90000 186.000
42.11000 184.000
42.32000 489.000
42.53000 202.000
42.74000 196.000
42.95000 171.000
43.16000 191.000
43.37000 163.000
43.58000 301.000
43.79000 152.000
44.00000 132.000
44.21000 155.000
44.42000 163.000
44.63000 158.000
44.84000 403.000
45.05000 166.000
45.26000 168.000
45.47000 199.000
45.68000 144.000
45.89000 159.000
46.10000 268.000
46.31000 167.000
46.52000 152.000
46.73000 138.000
46.94000 153.000
47.15000 131.000
47.36000 135.000
47.57000 143.000
47.78000 215.000
47.99000 202.000
48.20000 257.000
48.41000 134.000
48.62000 127.000
48.83000 121.000
49.04000 170.000
49.25000 152.000
49.46000 138.000
49.67000 125.000
49.88000 134.000
50.09000 141.000
50.30000 177.000
50.51000 126.000
50.72000 144.000
50.93000 165.000
51.14000 165.000
51.35000 168.000
51.56000 168.000
51.77000 231.000
51.98000 151.000
52.19000 201.000
52.40000 167.000
52.61000 168.000
52.82000 395.000
53.03000 168.000
53.24000 217.000
53.45000 144.000
53.66000 123.000
53.87000 141.000
54.08000 132.000
54.29000 131.000
54.50000 158.000
54.71000 151.000
54.92000 154.000
55.13000 148.000
55.34000 126.000
55.55000 170.000
55.76000 133.000
55.97000 160.000
56.18000 139.000
56.39000 140.000
56.60000 137.000
56.81000 134.000
57.02000 142.000
57.23000 322.000
57.44000 126.000
57.65000 133.000
57.86000 137.000
58.07000 130.000
58.28000 161.000
58.49000 132.000
58.70000 143.000
58.91000 150.000
59.12000 122.000
59.33000 140.000
59.54000 134.000
59.75000 114.000
59.96000 119.000
60.17000 115.000
60.38000 118.000
60.59000 112.000
60.80000 133.000
61.01000 112.000
61.22000 124.000
61.43000 125.000
61.64000 123.000
61.85000 129.000
61.98500 128.000

File: HSC039_2.xy
2.00000 1.000
2.21000 1.000
2.42000 2.000
2.63000 1.000
2.84000 82.000
3.05000 230.000
3.26000 203.000
3.47000 195.000
3.68000 180.000
3.89000 165.000
4.10000 143.000
4.31000 151.000
4.52000 146.000
4.73000 139.000
4.94000 117.000
5.15000 140.000
5.36000 143.000
5.57000 118.000
5.78000 140.000
5.99000 144.000
6.20000 129.000
6.41000 148.000
6.62000 117.000
6.83000 129.000
7.04000 173.000
7.25000 560.000
7.46000 126.000
7.67000 142.000
7.88000 133.000
8.09000 118.000
8.30000 137.000
8.51000 130.000
8.72000 143.000
8.93000 130.000
9.14000 128.000
9.35000 130.000
9.56000 120.000
9.77000 137.000
9.98000 143.000
10.19000 440.000
10.40000 212.000
10.61000 134.000
10.82000 117.000
11.03000 130.000
11.24000 118.000
11.45000 127.000
11.66000 141.000
11.87000 153.000
12.08000 181.000
12.29000 145.000
12.50000 314.000
12.71000 336.000
12.92000 134.000
13.13000 125.000
13.34000 139.000
13.55000 118.000
13.76000 121.000
13.97000 123.000
14.18000 121.000
14.39000 138.000
14.60000 213.000
14.81000 131.000
15.02000 124.000
15.23000 142.000
15.44000 143.000
15.65000 131.000
15.86000 144.000
16.07000 143.000
16.28000 247.000
16.49000 133.000
16.70000 122.000
16.91000 120.000
17.12000 126.000
17.33000 123.000
17.54000 123.000
17.75000 138.000
17.96000 138.000
18.17000 125.000
18.38000 117.000
18.59000 146.000
18.80000 141.000
19.01000 182.000
19.22000 132.000
19.43000 142.000
19.64000 155.000
19.85000 145.000
20.06000 157.000
20.27000 144.000
20.48000 154.000
20.69000 189.000
20.90000 200.000
21.11000 179.000
21.32000 177.000
21.53000 215.000
21.74000 269.000
21.95000 681.000
22.16000 181.000
22.37000 160.000
22.58000 164.000
22.79000 147.000
23.00000 173.000
23.21000 386.000
23.42000 162.000
23.63000 166.000
23.84000 174.000
24.05000 255.000
24.26000 829.000
24.47000 251.000
24.68000 200.000
24.89000 187.000
25.10000 178.000
25.31000 187.000
25.52000 170.000
25.73000 166.000
25.94000 157.000
26.15000 225.000
26.36000 418.000
26.57000 661.000
26.78000 240.000
26.99000 182.000
27.20000 213.000
27.41000 592.000
27.62000 383.000
27.83000 171.000
28.04000 185.000
28.25000 206.000
28.46000 180.000
28.67000 184.000
28.88000 190.000
29.09000 207.000
29.30000 296.000
29.51000 382.000
29.72000 193.000
29.93000 194.000
30.14000 353.000
30.35000 1237.000
30.56000 209.000
30.77000 160.000
30.98000 195.000
31.19000 214.000
31.40000 202.000
31.61000 177.000
31.82000 268.000
32.03000 294.000
32.24000 190.000
32.45000 151.000
32.66000 169.000
32.87000 278.000
33.08000 442.000
33.29000 164.000
33.50000 197.000
33.71000 278.000
33.92000 445.000
34.13000 171.000
34.34000 155.000
34.55000 294.000
34.76000 402.000
34.97000 143.000
35.18000 141.000
35.39000 146.000
35.60000 164.000
35.81000 143.000
36.02000 173.000
36.23000 261.000
36.44000 155.000
36.65000 173.000
36.86000 198.000
37.07000 158.000
37.28000 109.000
37.49000 145.000
37.70000 131.000
37.91000 125.000
38.12000 129.000
38.33000 168.000
38.54000 175.000
38.75000 112.000
38.96000 125.000
39.17000 106.000
39.38000 119.000
39.59000 181.000
39.80000 275.000
40.01000 172.000
40.22000 127.000
40.43000 124.000
40.64000 146.000
40.85000 121.000
41.06000 121.000
41.27000 121.000
41.48000 103.000
41.69000 105.000
41.90000 163.000
42.11000 239.000
42.32000 138.000
42.53000 122.000
42.74000 124.000
42.95000 99.000
43.16000 109.000
43.37000 114.000
43.58000 148.000
43.79000 130.000
44.00000 197.000
44.21000 131.000
44.42000 120.000
44.63000 155.000
44.84000 365.000
45.05000 143.000
45.26000 124.000
45.47000 127.000
45.68000 122.000
45.89000 91.000
46.10000 99.000
46.31000 104.000
46.52000 117.000
46.73000 114.000
46.94000 92.000
47.15000 90.000
47.36000 91.000
47.57000 120.000
47.78000 122.000
47.99000 226.000
48.20000 113.000
48.41000 121.000
48.62000 188.000
48.83000 127.000
49.04000 135.000
49.25000 146.000
49.46000 98.000
49.67000 102.000
49.88000 101.000
50.09000 135.000
50.30000 127.000
50.51000 128.000
50.72000 101.000
50.93000 101.000
51.14000 108.000
51.35000 97.000
51.56000 99.000
51.77000 94.000
51.98000 86.000
52.19000 97.000
52.40000 112.000
52.61000 128.000
52.82000 186.000
53.03000 135.000
53.24000 163.000
53.45000 365.000
53.66000 107.000
53.87000 114.000
54.08000 103.000
54.29000 97.000
54.50000 104.000
54.71000 127.000
54.92000 141.000
55.13000 216.000
55.34000 128.000
55.55000 117.000
55.76000 105.000
55.97000 91.000
56.18000 112.000
56.39000 103.000
56.60000 88.000
56.81000 95.000
57.02000 124.000
57.23000 130.000
57.44000 160.000
57.65000 104.000
57.86000 107.000
58.07000 102.000
58.28000 119.000
58.49000 191.000
58.70000 96.000
58.91000 114.000
59.12000 121.000
59.33000 106.000
59.54000 208.000
59.75000 106.000
59.96000 141.000
60.17000 105.000
60.38000 90.000
60.59000 107.000
60.80000 97.000
61.01000 119.000
61.22000 136.000
61.43000 124.000
61.64000 140.000
61.85000 108.000
61.98500 111.000

File: HSC039_AC3.xy
2.00000 1.000
2.21000 3.000
2.42000 1.000
2.63000 3.000
2.84000 7.000
3.05000 192.000
3.26000 204.000
3.47000 192.000
3.68000 174.000
3.89000 161.000
4.10000 149.000
4.31000 128.000
4.52000 126.000
4.73000 117.000
4.94000 123.000
5.15000 114.000
5.36000 122.000
5.57000 127.000
5.78000 109.000
5.99000 114.000
6.20000 110.000
6.41000 129.000
6.62000 112.000
6.83000 128.000
7.04000 147.000
7.25000 552.000
7.46000 109.000
7.67000 101.000
7.88000 114.000
8.09000 108.000
8.30000 109.000
8.51000 112.000
8.72000 113.000
8.93000 113.000
9.14000 106.000
9.35000 119.000
9.56000 122.000
9.77000 102.000
9.98000 127.000
10.19000 343.000
10.40000 235.000
10.61000 128.000
10.82000 98.000
11.03000 117.000
11.24000 123.000
11.45000 103.000
11.66000 96.000
11.87000 122.000
12.08000 138.000
12.29000 109.000
12.50000 221.000
12.71000 438.000
12.92000 113.000
13.13000 113.000
13.34000 107.000
13.55000 113.000
13.76000 99.000
13.97000 114.000
14.18000 109.000
14.39000 128.000
14.60000 220.000
14.81000 112.000
15.02000 108.000
15.23000 122.000
15.44000 122.000
15.65000 117.000
15.86000 110.000
16.07000 129.000
16.28000 206.000
16.49000 121.000
16.70000 119.000
16.91000 126.000
17.12000 110.000
17.33000 110.000
17.54000 130.000
17.75000 127.000
17.96000 125.000
18.17000 111.000
18.38000 128.000
18.59000 146.000
18.80000 145.000
19.01000 160.000
19.22000 136.000
19.43000 127.000
19.64000 130.000
19.85000 157.000
20.06000 140.000
20.27000 154.000
20.48000 156.000
20.69000 188.000
20.90000 184.000
21.11000 159.000
21.32000 162.000
21.53000 169.000
21.74000 249.000
21.95000 611.000
22.16000 189.000
22.37000 155.000
22.58000 135.000
22.79000 149.000
23.00000 164.000
23.21000 445.000
23.42000 159.000
23.63000 167.000
23.84000 170.000
24.05000 235.000
24.26000 499.000
24.47000 273.000
24.68000 167.000
24.89000 154.000
25.10000 157.000
25.31000 159.000
25.52000 169.000
25.73000 170.000
25.94000 158.000
26.15000 227.000
26.36000 273.000
26.57000 866.000
26.78000 215.000
26.99000 177.000
27.20000 183.000
27.41000 344.000
27.62000 401.000
27.83000 173.000
28.04000 165.000
28.25000 165.000
28.46000 173.000
28.67000 163.000
28.88000 171.000
29.09000 202.000
29.30000 204.000
29.51000 373.000
29.72000 157.000
29.93000 177.000
30.14000 210.000
30.35000 935.000
30.56000 202.000
30.77000 138.000
30.98000 155.000
31.19000 169.000
31.40000 197.000
31.61000 145.000
31.82000 203.000
32.03000 310.000
32.24000 171.000
32.45000 141.000
32.66000 149.000
32.87000 157.000
33.08000 544.000
33.29000 138.000
33.50000 145.000
33.71000 183.000
33.92000 559.000
34.13000 137.000
34.34000 156.000
34.55000 156.000
34.76000 535.000
34.97000 144.000
35.18000 136.000
35.39000 124.000
35.60000 141.000
35.81000 88.000
36.02000 127.000
36.23000 213.000
36.44000 135.000
36.65000 158.000
36.86000 198.000
37.07000 152.000
37.28000 106.000
37.49000 114.000
37.70000 117.000
37.91000 92.000
38.12000 106.000
38.33000 138.000
38.54000 158.000
38.75000 96.000
38.96000 100.000
39.17000 119.000
39.38000 95.000
39.59000 103.000
39.80000 272.000
40.01000 189.000
40.22000 107.000
40.43000 100.000
40.64000 97.000
40.85000 125.000
41.06000 113.000
41.27000 118.000
41.48000 93.000
41.69000 94.000
41.90000 98.000
42.11000 185.000
42.32000 105.000
42.53000 84.000
42.74000 111.000
42.95000 101.000
43.16000 70.000
43.37000 95.000
43.58000 149.000
43.79000 98.000
44.00000 178.000
44.21000 149.000
44.42000 87.000
44.63000 104.000
44.84000 381.000
45.05000 103.000
45.26000 123.000
45.47000 110.000
45.68000 88.000
45.89000 75.000
46.10000 105.000
46.31000 93.000
46.52000 89.000
46.73000 89.000
46.94000 85.000
47.15000 88.000
47.36000 81.000
47.57000 84.000
47.78000 81.000
47.99000 182.000
48.20000 122.000
48.41000 82.000
48.62000 156.000
48.83000 85.000
49.04000 116.000
49.25000 138.000
49.46000 93.000
49.67000 90.000
49.88000 104.000
50.09000 112.000
50.30000 130.000
50.51000 108.000
50.72000 105.000
50.93000 99.000
51.14000 89.000
51.35000 96.000
51.56000 106.000
51.77000 88.000
51.98000 79.000
52.19000 83.000
52.40000 82.000
52.61000 97.000
52.82000 194.000
53.03000 106.000
53.24000 98.000
53.45000 452.000
53.66000 100.000
53.87000 105.000
54.08000 111.000
54.29000 91.000
54.50000 87.000
54.71000 94.000
54.92000 117.000
55.13000 253.000
55.34000 108.000
55.55000 79.000
55.76000 127.000
55.97000 84.000
56.18000 107.000
56.39000 101.000
56.60000 80.000
56.81000 84.000
57.02000 89.000
57.23000 140.000
57.44000 197.000
57.65000 86.000
57.86000 91.000
58.07000 95.000
58.28000 89.000
58.49000 214.000
58.70000 91.000
58.91000 85.000
59.12000 93.000
59.33000 105.000
59.54000 202.000
59.75000 102.000
59.96000 98.000
60.17000 117.000
60.38000 100.000
60.59000 88.000
60.80000 86.000
61.01000 104.000
61.22000 151.000
61.43000 99.000
61.64000 124.000
61.85000 101.000
61.98500 80.000

File: HSC040.xy
2.00000 5.000
2.21000 6.000
2.42000 3.000
2.63000 6.000
2.84000 1.000
3.05000 8.000
3.26000 378.000
3.47000 499.000
3.68000 449.000
3.89000 404.000
4.10000 349.000
4.31000 360.000
4.52000 328.000
4.73000 302.000
4.94000 275.000
5.15000 306.000
5.36000 299.000
5.57000 297.000
5.78000 258.000
5.99000 290.000
6.20000 268.000
6.41000 283.000
6.62000 273.000
6.83000 294.000
7.04000 261.000
7.25000 270.000
7.46000 295.000
7.67000 275.000
7.88000 289.000
8.09000 271.000
8.30000 270.000
8.51000 275.000
8.72000 278.000
8.93000 271.000
9.14000 270.000
9.35000 299.000
9.56000 272.000
9.77000 282.000
9.98000 249.000
10.19000 307.000
10.40000 294.000
10.61000 264.000
10.82000 291.000
11.03000 286.000
11.24000 294.000
11.45000 315.000
11.66000 320.000
11.87000 486.000
12.08000 705.000
12.29000 417.000
12.50000 323.000
12.71000 294.000
12.92000 292.000
13.13000 295.000
13.34000 256.000
13.55000 266.000
13.76000 270.000
13.97000 283.000
14.18000 298.000
14.39000 293.000
14.60000 310.000
14.81000 274.000
15.02000 284.000
15.23000 298.000
15.44000 287.000
15.65000 286.000
15.86000 277.000
16.07000 285.000
16.28000 279.000
16.49000 268.000
16.70000 271.000
16.91000 290.000
17.12000 313.000
17.33000 289.000
17.54000 273.000
17.75000 280.000
17.96000 277.000
18.17000 282.000
18.38000 296.000
18.59000 305.000
18.80000 306.000
19.01000 311.000
19.22000 302.000
19.43000 317.000
19.64000 285.000
19.85000 278.000
20.06000 299.000
20.27000 294.000
20.48000 334.000
20.69000 458.000
20.90000 863.000
21.11000 612.000
21.32000 373.000
21.53000 317.000
21.74000 339.000
21.95000 303.000
22.16000 314.000
22.37000 309.000
22.58000 315.000
22.79000 338.000
23.00000 306.000
23.21000 306.000
23.42000 315.000
23.63000 293.000
23.84000 316.000
24.05000 426.000
24.26000 639.000
24.47000 450.000
24.68000 437.000
24.89000 486.000
25.10000 394.000
25.31000 347.000
25.52000 338.000
25.73000 345.000
25.94000 386.000
26.15000 440.000
26.36000 930.000
26.57000 2207.000
26.78000 765.000
26.99000 490.000
27.20000 394.000
27.41000 361.000
27.62000 329.000
27.83000 355.000
28.04000 314.000
28.25000 336.000
28.46000 333.000
28.67000 367.000
28.88000 539.000
29.09000 1122.000
29.30000 1714.000
29.51000 697.000
29.72000 442.000
29.93000 329.000
30.14000 290.000
30.35000 294.000
30.56000 290.000
30.77000 250.000
30.98000 248.000
31.19000 247.000
31.40000 263.000
31.61000 270.000
31.82000 270.000
32.03000 343.000
32.24000 705.000
32.45000 424.000
32.66000 293.000
32.87000 236.000
33.08000 241.000
33.29000 234.000
33.50000 220.000
33.71000 237.000
33.92000 250.000
34.13000 245.000
34.34000 228.000
34.55000 209.000
34.76000 223.000
34.97000 265.000
35.18000 239.000
35.39000 194.000
35.60000 207.000
35.81000 201.000
36.02000 217.000
36.23000 243.000
36.44000 232.000
36.65000 198.000
36.86000 194.000
37.07000 179.000
37.28000 178.000
37.49000 187.000
37.70000 177.000
37.91000 169.000
38.12000 156.000
38.33000 179.000
38.54000 155.000
38.75000 161.000
38.96000 157.000
39.17000 137.000
39.38000 146.000
39.59000 151.000
39.80000 149.000
40.01000 147.000
40.22000 149.000
40.43000 168.000
40.64000 163.000
40.85000 146.000
41.06000 157.000
41.27000 167.000
41.48000 147.000
41.69000 156.000
41.90000 149.000
42.11000 163.000
42.32000 181.000
42.53000 212.000
42.74000 228.000
42.95000 164.000
43.16000 171.000
43.37000 163.000
43.58000 143.000
43.79000 154.000
44.00000 172.000
44.21000 168.000
44.42000 254.000
44.63000 267.000
44.84000 251.000
45.05000 197.000
45.26000 168.000
45.47000 173.000
45.68000 210.000
45.89000 228.000
46.10000 173.000
46.31000 177.000
46.52000 220.000
46.73000 184.000
46.94000 153.000
47.15000 150.000
47.36000 143.000
47.57000 134.000
47.78000 132.000
47.99000 126.000
48.20000 112.000
48.41000 134.000
48.62000 135.000
48.83000 147.000
49.04000 140.000
49.25000 136.000
49.46000 147.000
49.67000 159.000
49.88000 150.000
50.09000 149.000
50.30000 146.000
50.51000 191.000
50.72000 238.000
50.93000 332.000
51.14000 254.000
51.35000 199.000
51.56000 150.000
51.77000 160.000
51.98000 146.000
52.19000 123.000
52.40000 147.000
52.61000 155.000
52.82000 135.000
53.03000 141.000
53.24000 132.000
53.45000 121.000
53.66000 131.000
53.87000 121.000
54.08000 149.000
54.29000 207.000
54.50000 276.000
54.71000 295.000
54.92000 187.000
55.13000 139.000
55.34000 132.000
55.55000 113.000
55.76000 122.000
55.97000 121.000
56.18000 125.000
56.39000 119.000
56.60000 121.000
56.81000 116.000
57.02000 121.000
57.23000 126.000
57.44000 135.000
57.65000 129.000
57.86000 126.000
58.07000 109.000
58.28000 124.000
58.49000 126.000
58.70000 118.000
58.91000 127.000
59.12000 128.000
59.33000 142.000
59.54000 117.000
59.75000 136.000
59.96000 140.000
60.17000 129.000
60.38000 132.000
60.59000 130.000
60.80000 114.000
61.01000 122.000
61.22000 120.000
61.43000 142.000
61.64000 108.000
61.85000 130.000
61.98500 111.000