Folder: phd-thesis/ISoD/xrd_data (part 19)

File: HSC196.xy
2.00000 2.000
2.21000 3.000
2.42000 3.000
2.63000 117.000
2.84000 106.000
3.05000 122.000
3.26000 105.000
3.47000 108.000
3.68000 118.000
3.89000 137.000
4.10000 137.000
4.31000 129.000
4.52000 135.000
4.73000 136.000
4.94000 128.000
5.15000 146.000
5.36000 161.000
5.57000 153.000
5.78000 144.000
5.99000 152.000
6.20000 162.000
6.41000 167.000
6.62000 158.000
6.83000 175.000
7.04000 170.000
7.25000 185.000
7.46000 192.000
7.67000 228.000
7.88000 463.000
8.09000 295.000
8.30000 225.000
8.51000 212.000
8.72000 214.000
8.93000 207.000
9.14000 184.000
9.35000 205.000
9.56000 191.000
9.77000 210.000
9.98000 343.000
10.19000 346.000
10.40000 218.000
10.61000 192.000
10.82000 192.000
11.03000 187.000
11.24000 187.000
11.45000 189.000
11.66000 171.000
11.87000 159.000
12.08000 182.000
12.29000 171.000
12.50000 171.000
12.71000 200.000
12.92000 177.000
13.13000 187.000
13.34000 195.000
13.55000 185.000
13.76000 201.000
13.97000 180.000
14.18000 175.000
14.39000 185.000
14.60000 194.000
14.81000 177.000
15.02000 200.000
15.23000 240.000
15.44000 183.000
15.65000 175.000
15.86000 179.000
16.07000 183.000
16.28000 161.000
16.49000 178.000
16.70000 181.000
16.91000 179.000
17.12000 194.000
17.33000 178.000
17.54000 183.000
17.75000 157.000
17.96000 189.000
18.17000 190.000
18.38000 210.000
18.59000 259.000
18.80000 241.000
19.01000 216.000
19.22000 189.000
19.43000 184.000
19.64000 180.000
19.85000 181.000
20.06000 205.000
20.27000 204.000
20.48000 189.000
20.69000 211.000
20.90000 195.000
21.11000 198.000
21.32000 211.000
21.53000 224.000
21.74000 235.000
21.95000 290.000
22.16000 298.000
22.37000 231.000
22.58000 272.000
22.79000 313.000
23.00000 362.000
23.21000 289.000
23.42000 258.000
23.63000 239.000
23.84000 254.000
24.05000 283.000
24.26000 273.000
24.47000 295.000
24.68000 306.000
24.89000 283.000
25.10000 285.000
25.31000 305.000
25.52000 359.000
25.73000 402.000
25.94000 348.000
26.15000 336.000
26.36000 353.000
26.57000 318.000
26.78000 338.000
26.99000 363.000
27.20000 398.000
27.41000 458.000
27.62000 866.000
27.83000 1425.000
28.04000 1039.000
28.25000 713.000
28.46000 518.000
28.67000 472.000
28.88000 357.000
29.09000 397.000
29.30000 329.000
29.51000 317.000
29.72000 294.000
29.93000 297.000
30.14000 280.000
30.35000 312.000
30.56000 304.000
30.77000 305.000
30.98000 246.000
31.19000 247.000
31.40000 271.000
31.61000 279.000
31.82000 257.000
32.03000 246.000
32.24000 254.000
32.45000 347.000
32.66000 201.000
32.87000 188.000
33.08000 170.000
33.29000 178.000
33.50000 176.000
33.71000 160.000
33.92000 165.000
34.13000 180.000
34.34000 166.000
34.55000 175.000
34.76000 180.000
34.97000 192.000
35.18000 195.000
35.39000 287.000
35.60000 245.000
35.81000 199.000
36.02000 182.000
36.23000 200.000
36.44000 221.000
36.65000 219.000
36.86000 166.000
37.07000 157.000
37.28000 210.000
37.49000 214.000
37.70000 214.000
37.91000 186.000
38.12000 191.000
38.33000 188.000
38.54000 177.000
38.75000 203.000
38.96000 194.000
39.17000 139.000
39.38000 138.000
39.59000 145.000
39.80000 160.000
40.01000 183.000
40.22000 189.000
40.43000 161.000
40.64000 174.000
40.85000 153.000
41.06000 145.000
41.27000 135.000
41.48000 140.000
41.69000 126.000
41.90000 135.000
42.11000 133.000
42.32000 125.000
42.53000 152.000
42.74000 147.000
42.95000 161.000
43.16000 208.000
43.37000 248.000
43.58000 180.000
43.79000 164.000
44.00000 150.000
44.21000 160.000
44.42000 170.000
44.63000 191.000
44.84000 147.000
45.05000 154.000
45.26000 175.000
45.47000 174.000
45.68000 172.000
45.89000 158.000
46.10000 150.000
46.31000 141.000
46.52000 159.000
46.73000 153.000
46.94000 130.000
47.15000 120.000
47.36000 132.000
47.57000 119.000
47.78000 109.000
47.99000 128.000
48.20000 111.000
48.41000 107.000
48.62000 117.000
48.83000 114.000
49.04000 111.000
49.25000 95.000
49.46000 110.000
49.67000 108.000
49.88000 105.000
50.09000 143.000
50.30000 120.000
50.51000 111.000
50.72000 124.000
50.93000 121.000
51.14000 119.000
51.35000 114.000
51.56000 111.000
51.77000 101.000
51.98000 115.000
52.19000 95.000
52.40000 112.000
52.61000 95.000
52.82000 131.000
53.03000 124.000
53.24000 123.000
53.45000 106.000
53.66000 120.000
53.87000 103.000
54.08000 92.000
54.29000 110.000
54.50000 99.000
54.71000 104.000
54.92000 96.000
55.13000 106.000
55.34000 90.000
55.55000 103.000
55.76000 106.000
55.97000 99.000
56.18000 105.000
56.39000 115.000
56.60000 91.000
56.81000 112.000
57.02000 111.000
57.23000 115.000
57.44000 113.000
57.65000 131.000
57.86000 121.000
58.07000 109.000
58.28000 105.000
58.49000 97.000
58.70000 95.000
58.91000 98.000
59.12000 121.000
59.33000 103.000
59.54000 103.000
59.75000 112.000
59.96000 105.000
60.17000 102.000
60.38000 87.000
60.59000 83.000
60.80000 113.000
61.01000 80.000
61.22000 87.000
61.43000 104.000
61.64000 87.000
61.85000 108.000
61.98500 75.000

File: HSC196_NM_range_1.xy
2.00000 2.000
2.21000 4.000
2.42000 2.000
2.63000 0.000
2.84000 132.000
3.05000 239.000
3.26000 262.000
3.47000 268.000
3.68000 298.000
3.89000 274.000
4.10000 293.000
4.31000 323.000
4.52000 318.000
4.73000 315.000
4.94000 340.000
5.15000 369.000
5.36000 364.000
5.57000 363.000
5.78000 379.000
5.99000 418.000
6.20000 401.000
6.41000 433.000
6.62000 402.000
6.83000 382.000
7.04000 464.000
7.25000 442.000
7.46000 474.000
7.67000 562.000
7.88000 1110.000
8.09000 748.000
8.30000 541.000
8.51000 501.000
8.72000 501.000
8.93000 509.000
9.14000 473.000
9.35000 515.000
9.56000 502.000
9.77000 559.000
9.98000 801.000
10.19000 766.000
10.40000 534.000
10.61000 515.000
10.82000 466.000
11.03000 479.000
11.24000 470.000
11.45000 504.000
11.66000 514.000
11.87000 449.000
12.08000 488.000
12.29000 475.000
12.50000 449.000
12.71000 454.000
12.92000 459.000
13.13000 458.000
13.34000 488.000
13.55000 480.000
13.76000 428.000
13.97000 464.000
14.18000 455.000
14.39000 470.000
14.60000 455.000
14.81000 448.000
15.02000 517.000
15.23000 566.000
15.44000 526.000
15.65000 465.000
15.86000 470.000
16.07000 491.000
16.28000 453.000
16.49000 502.000
16.70000 472.000
16.91000 460.000
17.12000 456.000
17.33000 483.000
17.54000 444.000
17.75000 470.000
17.96000 503.000
18.17000 478.000
18.38000 563.000
18.59000 667.000
18.80000 582.000
19.01000 518.000
19.22000 511.000
19.43000 503.000
19.64000 482.000
19.85000 505.000
20.06000 495.000
20.27000 512.000
20.48000 544.000
20.69000 530.000
20.90000 490.000
21.11000 526.000
21.32000 545.000
21.53000 585.000
21.74000 598.000
21.95000 651.000
22.16000 648.000
22.37000 617.000
22.58000 631.000
22.79000 755.000
23.00000 823.000
23.21000 736.000
23.42000 661.000
23.63000 615.000
23.84000 646.000
24.05000 661.000
24.26000 686.000
24.47000 743.000
24.68000 762.000
24.89000 732.000
25.10000 753.000
25.31000 709.000
25.52000 830.000
25.73000 881.000
25.94000 845.000
26.15000 789.000
26.36000 800.000
26.57000 854.000
26.78000 831.000
26.99000 957.000
27.20000 1077.000
27.41000 1242.000
27.62000 2459.000
27.83000 3191.000
28.04000 2414.000
28.25000 1655.000
28.46000 1262.000
28.67000 1016.000
28.88000 895.000
29.09000 916.000
29.30000 793.000
29.51000 764.000
29.72000 781.000
29.93000 727.000
30.14000 731.000
30.35000 788.000
30.56000 771.000
30.77000 700.000
30.98000 611.000
31.19000 614.000
31.40000 660.000
31.61000 637.000
31.82000 631.000
32.03000 604.000
32.24000 731.000
32.45000 735.000
32.66000 563.000
32.87000 480.000
33.08000 457.000
33.29000 452.000
33.50000 421.000
33.71000 476.000
33.92000 437.000
34.13000 439.000
34.34000 431.000
34.55000 455.000
34.76000 463.000
34.97000 452.000
35.18000 498.000
35.39000 699.000
35.60000 634.000
35.81000 486.000
36.02000 475.000
36.23000 515.000
36.44000 550.000
36.65000 551.000
36.86000 421.000
37.07000 459.000
37.28000 490.000
37.49000 521.000
37.70000 472.000
37.91000 435.000
38.12000 441.000
38.33000 451.000
38.54000 498.000
38.75000 481.000
38.96000 447.000
39.17000 361.000
39.38000 395.000
39.59000 373.000
39.80000 403.000
40.01000 427.000
40.22000 439.000
40.43000 424.000
40.64000 402.000
40.85000 408.000
41.06000 352.000
41.27000 352.000
41.48000 355.000
41.69000 351.000
41.90000 345.000
42.11000 358.000
42.32000 340.000
42.53000 360.000
42.74000 348.000
42.95000 419.000
43.16000 545.000
43.37000 540.000
43.58000 451.000
43.79000 400.000
44.00000 362.000
44.21000 379.000
44.42000 466.000
44.63000 418.000
44.84000 434.000
45.05000 417.000
45.26000 413.000
45.47000 370.000
45.68000 385.000
45.89000 389.000
46.10000 380.000
46.31000 370.000
46.52000 375.000
46.73000 335.000
46.94000 350.000
47.15000 339.000
47.36000 308.000
47.57000 291.000
47.78000 301.000
47.99000 297.000
48.20000 301.000
48.41000 281.000
48.62000 313.000
48.83000 273.000
49.04000 282.000
49.25000 278.000
49.46000 267.000
49.67000 264.000
49.88000 273.000
50.09000 311.000
50.30000 285.000
50.51000 278.000
50.72000 283.000
50.93000 307.000
51.14000 293.000
51.35000 264.000
51.56000 282.000
51.77000 264.000
51.98000 243.000
52.19000 266.000
52.40000 267.000
52.61000 289.000
52.82000 294.000
53.03000 270.000
53.24000 288.000
53.45000 273.000
53.66000 263.000
53.87000 260.000
54.08000 284.000
54.29000 282.000
54.50000 266.000
54.71000 254.000
54.92000 257.000
55.13000 248.000
55.34000 259.000
55.55000 242.000
55.76000 251.000
55.97000 251.000
56.18000 254.000
56.39000 262.000
56.60000 247.000
56.81000 250.000
57.02000 282.000
57.23000 265.000
57.44000 292.000
57.65000 308.000
57.86000 251.000
58.07000 289.000
58.28000 292.000
58.49000 293.000
58.70000 275.000
58.91000 247.000
59.12000 266.000
59.33000 239.000
59.54000 253.000
59.75000 250.000
59.96000 251.000
60.17000 245.000
60.38000 211.000
60.59000 274.000
60.80000 269.000
61.01000 240.000
61.22000 267.000
61.43000 240.000
61.64000 224.000
61.85000 217.000
61.98500 211.000

File: HSC196_NM_range_2.xy
2.00000 5.000
2.21000 5.000
2.42000 1.000
2.63000 2.000
2.84000 114.000
3.05000 256.000
3.26000 299.000
3.47000 294.000
3.68000 304.000
3.89000 311.000
4.10000 340.000
4.31000 342.000
4.52000 342.000
4.73000 352.000
4.94000 355.000
5.15000 400.000
5.36000 395.000
5.57000 404.000
5.78000 430.000
5.99000 410.000
6.20000 405.000
6.41000 420.000
6.62000 423.000
6.83000 467.000
7.04000 424.000
7.25000 474.000
7.46000 479.000
7.67000 557.000
7.88000 1172.000
8.09000 766.000
8.30000 576.000
8.51000 544.000
8.72000 569.000
8.93000 532.000
9.14000 534.000
9.35000 557.000
9.56000 580.000
9.77000 594.000
9.98000 813.000
10.19000 798.000
10.40000 574.000
10.61000 512.000
10.82000 503.000
11.03000 502.000
11.24000 519.000
11.45000 487.000
11.66000 513.000
11.87000 497.000
12.08000 518.000
12.29000 478.000
12.50000 486.000
12.71000 499.000
12.92000 480.000
13.13000 488.000
13.34000 492.000
13.55000 458.000
13.76000 469.000
13.97000 463.000
14.18000 517.000
14.39000 487.000
14.60000 500.000
14.81000 487.000
15.02000 548.000
15.23000 608.000
15.44000 523.000
15.65000 508.000
15.86000 468.000
16.07000 509.000
16.28000 474.000
16.49000 466.000
16.70000 482.000
16.91000 530.000
17.12000 523.000
17.33000 477.000
17.54000 529.000
17.75000 508.000
17.96000 505.000
18.17000 512.000
18.38000 549.000
18.59000 696.000
18.80000 618.000
19.01000 518.000
19.22000 463.000
19.43000 534.000
19.64000 496.000
19.85000 480.000
20.06000 525.000
20.27000 525.000
20.48000 529.000
20.69000 523.000
20.90000 573.000
21.11000 547.000
21.32000 600.000
21.53000 597.000
21.74000 637.000
21.95000 683.000
22.16000 678.000
22.37000 658.000
22.58000 675.000
22.79000 757.000
23.00000 890.000
23.21000 731.000
23.42000 708.000
23.63000 632.000
23.84000 678.000
24.05000 734.000
24.26000 677.000
24.47000 766.000
24.68000 776.000
24.89000 744.000
25.10000 800.000
25.31000 757.000
25.52000 861.000
25.73000 863.000
25.94000 844.000
26.15000 823.000
26.36000 865.000
26.57000 863.000
26.78000 898.000
26.99000 1016.000
27.20000 1087.000
27.41000 1328.000
27.62000 2547.000
27.83000 3231.000
28.04000 2492.000
28.25000 1649.000
28.46000 1284.000
28.67000 1105.000
28.88000 945.000
29.09000 961.000
29.30000 815.000
29.51000 723.000
29.72000 771.000
29.93000 720.000
30.14000 749.000
30.35000 825.000
30.56000 795.000
30.77000 736.000
30.98000 676.000
31.19000 630.000
31.40000 670.000
31.61000 647.000
31.82000 672.000
32.03000 649.000
32.24000 660.000
32.45000 720.000
32.66000 569.000
32.87000 484.000
33.08000 494.000
33.29000 470.000
33.50000 432.000
33.71000 470.000
33.92000 413.000
34.13000 442.000
34.34000 434.000
34.55000 447.000
34.76000 444.000
34.97000 453.000
35.18000 486.000
35.39000 675.000
35.60000 634.000
35.81000 483.000
36.02000 471.000
36.23000 509.000
36.44000 568.000
36.65000 573.000
36.86000 458.000
37.07000 472.000
37.28000 510.000
37.49000 547.000
37.70000 505.000
37.91000 484.000
38.12000 454.000
38.33000 425.000
38.54000 463.000
38.75000 480.000
38.96000 444.000
39.17000 400.000
39.38000 381.000
39.59000 424.000
39.80000 421.000
40.01000 437.000
40.22000 420.000
40.43000 463.000
40.64000 406.000
40.85000 403.000
41.06000 406.000
41.27000 354.000
41.48000 384.000
41.69000 364.000
41.90000 365.000
42.11000 352.000
42.32000 350.000
42.53000 380.000
42.74000 381.000
42.95000 404.000
43.16000 559.000
43.37000 584.000
43.58000 456.000
43.79000 400.000
44.00000 401.000
44.21000 381.000
44.42000 465.000
44.63000 424.000
44.84000 410.000
45.05000 401.000
45.26000 424.000
45.47000 393.000
45.68000 375.000
45.89000 375.000
46.10000 395.000
46.31000 386.000
46.52000 361.000
46.73000 376.000
46.94000 323.000
47.15000 332.000
47.36000 320.000
47.57000 299.000
47.78000 304.000
47.99000 316.000
48.20000 305.000
48.41000 268.000
48.62000 293.000
48.83000 272.000
49.04000 253.000
49.25000 258.000
49.46000 272.000
49.67000 282.000
49.88000 278.000
50.09000 340.000
50.30000 286.000
50.51000 273.000
50.72000 283.000
50.93000 306.000
51.14000 256.000
51.35000 293.000
51.56000 281.000
51.77000 279.000
51.98000 266.000
52.19000 261.000
52.40000 264.000
52.61000 271.000
52.82000 304.000
53.03000 291.000
53.24000 276.000
53.45000 269.000
53.66000 258.000
53.87000 268.000
54.08000 283.000
54.29000 282.000
54.50000 259.000
54.71000 261.000
54.92000 239.000
55.13000 248.000
55.34000 247.000
55.55000 241.000
55.76000 233.000
55.97000 250.000
56.18000 275.000
56.39000 253.000
56.60000 259.000
56.81000 281.000
57.02000 285.000
57.23000 276.000
57.44000 302.000
57.65000 274.000
57.86000 279.000
58.07000 273.000
58.28000 274.000
58.49000 273.000
58.70000 267.000
58.91000 277.000
59.12000 256.000
59.33000 253.000
59.54000 255.000
59.75000 244.000
59.96000 236.000
60.17000 234.000
60.38000 235.000
60.59000 250.000
60.80000 243.000
61.01000 247.000
61.22000 214.000
61.43000 226.000
61.64000 198.000
61.85000 216.000
61.98500 235.000

File: HSC196_NM_range_3.xy
2.00000 4.000
2.21000 5.000
2.42000 4.000
2.63000 6.000
2.84000 105.000
3.05000 270.000
3.26000 267.000
3.47000 296.000
3.68000 303.000
3.89000 306.000
4.10000 326.000
4.31000 368.000
4.52000 341.000
4.73000 347.000
4.94000 376.000
5.15000 381.000
5.36000 389.000
5.57000 389.000
5.78000 433.000
5.99000 409.000
6.20000 426.000
6.41000 450.000
6.62000 435.000
6.83000 450.000
7.04000 452.000
7.25000 451.000
7.46000 495.000
7.67000 593.000
7.88000 1255.000
8.09000 735.000
8.30000 588.000
8.51000 548.000
8.72000 540.000
8.93000 528.000
9.14000 524.000
9.35000 554.000
9.56000 564.000
9.77000 596.000
9.98000 829.000
10.19000 822.000
10.40000 564.000
10.61000 523.000
10.82000 510.000
11.03000 506.000
11.24000 475.000
11.45000 482.000
11.66000 493.000
11.87000 516.000
12.08000 530.000
12.29000 510.000
12.50000 515.000
12.71000 510.000
12.92000 459.000
13.13000 524.000
13.34000 510.000
13.55000 485.000
13.76000 488.000
13.97000 484.000
14.18000 478.000
14.39000 491.000
14.60000 467.000
14.81000 520.000
15.02000 530.000
15.23000 583.000
15.44000 535.000
15.65000 509.000
15.86000 499.000
16.07000 505.000
16.28000 484.000
16.49000 511.000
16.70000 481.000
16.91000 468.000
17.12000 495.000
17.33000 423.000
17.54000 481.000
17.75000 513.000
17.96000 467.000
18.17000 506.000
18.38000 546.000
18.59000 703.000
18.80000 590.000
19.01000 517.000
19.22000 517.000
19.43000 497.000
19.64000 509.000
19.85000 499.000
20.06000 501.000
20.27000 565.000
20.48000 520.000
20.69000 543.000
20.90000 576.000
21.11000 561.000
21.32000 565.000
21.53000 535.000
21.74000 615.000
21.95000 664.000
22.16000 694.000
22.37000 630.000
22.58000 682.000
22.79000 764.000
23.00000 893.000
23.21000 712.000
23.42000 707.000
23.63000 653.000
23.84000 682.000
24.05000 701.000
24.26000 696.000
24.47000 750.000
24.68000 789.000
24.89000 795.000
25.10000 735.000
25.31000 807.000
25.52000 858.000
25.73000 882.000
25.94000 802.000
26.15000 810.000
26.36000 852.000
26.57000 865.000
26.78000 897.000
26.99000 961.000
27.20000 1004.000
27.41000 1262.000
27.62000 2458.000
27.83000 3260.000
28.04000 2504.000
28.25000 1723.000
28.46000 1296.000
28.67000 1051.000
28.88000 930.000
29.09000 990.000
29.30000 839.000
29.51000 773.000
29.72000 746.000
29.93000 772.000
30.14000 732.000
30.35000 802.000
30.56000 799.000
30.77000 757.000
30.98000 673.000
31.19000 619.000
31.40000 648.000
31.61000 703.000
31.82000 636.000
32.03000 663.000
32.24000 722.000
32.45000 719.000
32.66000 530.000
32.87000 497.000
33.08000 480.000
33.29000 482.000
33.50000 454.000
33.71000 468.000
33.92000 448.000
34.13000 453.000
34.34000 452.000
34.55000 432.000
34.76000 444.000
34.97000 457.000
35.18000 509.000
35.39000 692.000
35.60000 653.000
35.81000 463.000
36.02000 495.000
36.23000 534.000
36.44000 539.000
36.65000 573.000
36.86000 465.000
37.07000 456.000
37.28000 519.000
37.49000 521.000
37.70000 496.000
37.91000 451.000
38.12000 449.000
38.33000 454.000
38.54000 517.000
38.75000 491.000
38.96000 476.000
39.17000 420.000
39.38000 377.000
39.59000 371.000
39.80000 380.000
40.01000 444.000
40.22000 439.000
40.43000 458.000
40.64000 457.000
40.85000 391.000
41.06000 371.000
41.27000 336.000
41.48000 352.000
41.69000 355.000
41.90000 367.000
42.11000 332.000
42.32000 349.000
42.53000 383.000
42.74000 358.000
42.95000 419.000
43.16000 566.000
43.37000 557.000
43.58000 439.000
43.79000 401.000
44.00000 368.000
44.21000 422.000
44.42000 449.000
44.63000 372.000
44.84000 412.000
45.05000 412.000
45.26000 402.000
45.47000 361.000
45.68000 350.000
45.89000 391.000
46.10000 385.000
46.31000 373.000
46.52000 352.000
46.73000 363.000
46.94000 332.000
47.15000 339.000
47.36000 318.000
47.57000 277.000
47.78000 281.000
47.99000 313.000
48.20000 306.000
48.41000 280.000
48.62000 269.000
48.83000 303.000
49.04000 264.000
49.25000 272.000
49.46000 278.000
49.67000 279.000
49.88000 278.000
50.09000 348.000
50.30000 282.000
50.51000 299.000
50.72000 299.000
50.93000 307.000
51.14000 295.000
51.35000 305.000
51.56000 313.000
51.77000 287.000
51.98000 263.000
52.19000 273.000
52.40000 274.000
52.61000 277.000
52.82000 286.000
53.03000 304.000
53.24000 285.000
53.45000 255.000
53.66000 248.000
53.87000 257.000
54.08000 260.000
54.29000 273.000
54.50000 269.000
54.71000 235.000
54.92000 239.000
55.13000 249.000
55.34000 259.000
55.55000 248.000
55.76000 257.000
55.97000 225.000
56.18000 256.000
56.39000 279.000
56.60000 257.000
56.81000 265.000
57.02000 275.000
57.23000 293.000
57.44000 306.000
57.65000 274.000
57.86000 279.000
58.07000 275.000
58.28000 280.000
58.49000 263.000
58.70000 258.000
58.91000 246.000
59.12000 230.000
59.33000 240.000
59.54000 236.000
59.75000 230.000
59.96000 261.000
60.17000 227.000
60.38000 255.000
60.59000 260.000
60.80000 261.000
61.01000 259.000
61.22000 257.000
61.43000 228.000
61.64000 213.000
61.85000 214.000
61.98500 211.000

File: HSC196_NM_range_4.xy
2.00000 4.000
2.21000 3.000
2.42000 2.000
2.63000 4.000
2.84000 119.000
3.05000 260.000
3.26000 274.000
3.47000 303.000
3.68000 312.000
3.89000 282.000
4.10000 335.000
4.31000 344.000
4.52000 351.000
4.73000 351.000
4.94000 368.000
5.15000 379.000
5.36000 416.000
5.57000 407.000
5.78000 413.000
5.99000 419.000
6.20000 386.000
6.41000 415.000
6.62000 418.000
6.83000 421.000
7.04000 474.000
7.25000 461.000
7.46000 463.000
7.67000 570.000
7.88000 1151.000
8.09000 756.000
8.30000 580.000
8.51000 525.000
8.72000 490.000
8.93000 533.000
9.14000 519.000
9.35000 520.000
9.56000 543.000
9.77000 589.000
9.98000 835.000
10.19000 803.000
10.40000 577.000
10.61000 526.000
10.82000 531.000
11.03000 539.000
11.24000 517.000
11.45000 494.000
11.66000 525.000
11.87000 476.000
12.08000 546.000
12.29000 478.000
12.50000 483.000
12.71000 488.000
12.92000 454.000
13.13000 500.000
13.34000 491.000
13.55000 442.000
13.76000 510.000
13.97000 463.000
14.18000 467.000
14.39000 504.000
14.60000 502.000
14.81000 466.000
15.02000 536.000
15.23000 598.000
15.44000 473.000
15.65000 512.000
15.86000 497.000
16.07000 468.000
16.28000 451.000
16.49000 521.000
16.70000 456.000
16.91000 445.000
17.12000 462.000
17.33000 484.000
17.54000 487.000
17.75000 486.000
17.96000 470.000
18.17000 506.000
18.38000 542.000
18.59000 654.000
18.80000 593.000
19.01000 543.000
19.22000 495.000
19.43000 492.000
19.64000 515.000
19.85000 493.000
20.06000 510.000
20.27000 481.000
20.48000 543.000
20.69000 551.000
20.90000 526.000
21.11000 566.000
21.32000 517.000
21.53000 564.000
21.74000 597.000
21.95000 656.000
22.16000 667.000
22.37000 618.000
22.58000 660.000
22.79000 741.000
23.00000 834.000
23.21000 740.000
23.42000 666.000
23.63000 668.000
23.84000 615.000
24.05000 705.000
24.26000 651.000
24.47000 730.000
24.68000 728.000
24.89000 758.000
25.10000 757.000
25.31000 748.000
25.52000 851.000
25.73000 866.000
25.94000 834.000
26.15000 826.000
26.36000 837.000
26.57000 837.000
26.78000 920.000
26.99000 944.000
27.20000 1053.000
27.41000 1273.000
27.62000 2508.000
27.83000 3206.000
28.04000 2506.000
28.25000 1710.000
28.46000 1287.000
28.67000 1045.000
28.88000 892.000
29.09000 941.000
29.30000 865.000
29.51000 764.000
29.72000 747.000
29.93000 726.000
30.14000 765.000
30.35000 763.000
30.56000 801.000
30.77000 769.000
30.98000 633.000
31.19000 611.000
31.40000 694.000
31.61000 612.000
31.82000 615.000
32.03000 607.000
32.24000 708.000
32.45000 726.000
32.66000 517.000
32.87000 485.000
33.08000 472.000
33.29000 466.000
33.50000 420.000
33.71000 466.000
33.92000 413.000
34.13000 439.000
34.34000 422.000
34.55000 399.000
34.76000 437.000
34.97000 481.000
35.18000 504.000
35.39000 710.000
35.60000 622.000
35.81000 507.000
36.02000 453.000
36.23000 513.000
36.44000 572.000
36.65000 543.000
36.86000 439.000
37.07000 465.000
37.28000 513.000
37.49000 504.000
37.70000 483.000
37.91000 487.000
38.12000 464.000
38.33000 450.000
38.54000 483.000
38.75000 523.000
38.96000 446.000
39.17000 374.000
39.38000 392.000
39.59000 388.000
39.80000 408.000
40.01000 439.000
40.22000 424.000
40.43000 434.000
40.64000 391.000
40.85000 400.000
41.06000 381.000
41.27000 366.000
41.48000 359.000
41.69000 348.000
41.90000 356.000
42.11000 358.000
42.32000 342.000
42.53000 347.000
42.74000 366.000
42.95000 389.000
43.16000 516.000
43.37000 560.000
43.58000 456.000
43.79000 406.000
44.00000 352.000
44.21000 410.000
44.42000 443.000
44.63000 433.000
44.84000 407.000
45.05000 402.000
45.26000 404.000
45.47000 388.000
45.68000 382.000
45.89000 357.000
46.10000 368.000
46.31000 367.000
46.52000 345.000
46.73000 347.000
46.94000 337.000
47.15000 307.000
47.36000 323.000
47.57000 307.000
47.78000 294.000
47.99000 332.000
48.20000 276.000
48.41000 273.000
48.62000 262.000
48.83000 247.000
49.04000 282.000
49.25000 248.000
49.46000 283.000
49.67000 266.000
49.88000 281.000
50.09000 344.000
50.30000 284.000
50.51000 293.000
50.72000 279.000
50.93000 288.000
51.14000 297.000
51.35000 284.000
51.56000 313.000
51.77000 256.000
51.98000 263.000
52.19000 243.000
52.40000 272.000
52.61000 260.000
52.82000 303.000
53.03000 297.000
53.24000 290.000
53.45000 283.000
53.66000 271.000
53.87000 264.000
54.08000 261.000
54.29000 263.000
54.50000 285.000
54.71000 270.000
54.92000 239.000
55.13000 243.000
55.34000 250.000
55.55000 229.000
55.76000 231.000
55.97000 226.000
56.18000 252.000
56.39000 234.000
56.60000 248.000
56.81000 259.000
57.02000 272.000
57.23000 274.000
57.44000 288.000
57.65000 280.000
57.86000 251.000
58.07000 272.000
58.28000 296.000
58.49000 235.000
58.70000 259.000
58.91000 255.000
59.12000 263.000
59.33000 248.000
59.54000 204.000
59.75000 242.000
59.96000 220.000
60.17000 232.000
60.38000 246.000
60.59000 246.000
60.80000 227.000
61.01000 230.000
61.22000 237.000
61.43000 248.000
61.64000 220.000
61.85000 224.000
61.98500 203.000