Folder: phd-thesis/ISoD/xrd_data (part 15)

File: HSC078.xy
2.00000 4.000
2.21000 6.000
2.42000 6.000
2.63000 4.000
2.84000 2.000
3.05000 16.000
3.26000 429.000
3.47000 378.000
3.68000 378.000
3.89000 366.000
4.10000 329.000
4.31000 337.000
4.52000 341.000
4.73000 328.000
4.94000 340.000
5.15000 327.000
5.36000 328.000
5.57000 353.000
5.78000 348.000
5.99000 371.000
6.20000 329.000
6.41000 348.000
6.62000 347.000
6.83000 334.000
7.04000 354.000
7.25000 361.000
7.46000 369.000
7.67000 362.000
7.88000 381.000
8.09000 349.000
8.30000 376.000
8.51000 392.000
8.72000 423.000
8.93000 381.000
9.14000 350.000
9.35000 372.000
9.56000 384.000
9.77000 375.000
9.98000 407.000
10.19000 431.000
10.40000 403.000
10.61000 420.000
10.82000 414.000
11.03000 439.000
11.24000 454.000
11.45000 425.000
11.66000 478.000
11.87000 473.000
12.08000 479.000
12.29000 508.000
12.50000 567.000
12.71000 607.000
12.92000 609.000
13.13000 636.000
13.34000 662.000
13.55000 618.000
13.76000 629.000
13.97000 625.000
14.18000 592.000
14.39000 607.000
14.60000 596.000
14.81000 587.000
15.02000 561.000
15.23000 552.000
15.44000 530.000
15.65000 583.000
15.86000 557.000
16.07000 578.000
16.28000 550.000
16.49000 548.000
16.70000 514.000
16.91000 546.000
17.12000 533.000
17.33000 596.000
17.54000 574.000
17.75000 585.000
17.96000 602.000
18.17000 590.000
18.38000 563.000
18.59000 556.000
18.80000 583.000
19.01000 554.000
19.22000 579.000
19.43000 575.000
19.64000 552.000
19.85000 581.000
20.06000 520.000
20.27000 553.000
20.48000 534.000
20.69000 562.000
20.90000 530.000
21.11000 536.000
21.32000 553.000
21.53000 580.000
21.74000 553.000
21.95000 577.000
22.16000 561.000
22.37000 559.000
22.58000 556.000
22.79000 586.000
23.00000 592.000
23.21000 574.000
23.42000 556.000
23.63000 541.000
23.84000 581.000
24.05000 574.000
24.26000 541.000
24.47000 596.000
24.68000 554.000
24.89000 606.000
25.10000 601.000
25.31000 639.000
25.52000 694.000
25.73000 748.000
25.94000 769.000
26.15000 883.000
26.36000 920.000
26.57000 1104.000
26.78000 1340.000
26.99000 1635.000
27.20000 1907.000
27.41000 2080.000
27.62000 2092.000
27.83000 1731.000
28.04000 1334.000
28.25000 1032.000
28.46000 859.000
28.67000 689.000
28.88000 665.000
29.09000 627.000
29.30000 552.000
29.51000 582.000
29.72000 473.000
29.93000 472.000
30.14000 448.000
30.35000 485.000
30.56000 449.000
30.77000 462.000
30.98000 450.000
31.19000 408.000
31.40000 411.000
31.61000 392.000
31.82000 389.000
32.03000 367.000
32.24000 390.000
32.45000 356.000
32.66000 338.000
32.87000 356.000
33.08000 325.000
33.29000 310.000
33.50000 317.000
33.71000 326.000
33.92000 303.000
34.13000 307.000
34.34000 308.000
34.55000 327.000
34.76000 306.000
34.97000 278.000
35.18000 285.000
35.39000 301.000
35.60000 299.000
35.81000 273.000
36.02000 294.000
36.23000 266.000
36.44000 256.000
36.65000 274.000
36.86000 275.000
37.07000 227.000
37.28000 254.000
37.49000 238.000
37.70000 227.000
37.91000 247.000
38.12000 271.000
38.33000 227.000
38.54000 254.000
38.75000 239.000
38.96000 262.000
39.17000 254.000
39.38000 240.000
39.59000 234.000
39.80000 242.000
40.01000 226.000
40.22000 234.000
40.43000 231.000
40.64000 221.000
40.85000 238.000
41.06000 250.000
41.27000 245.000
41.48000 246.000
41.69000 243.000
41.90000 245.000
42.11000 270.000
42.32000 240.000
42.53000 237.000
42.74000 263.000
42.95000 262.000
43.16000 253.000
43.37000 244.000
43.58000 249.000
43.79000 252.000
44.00000 267.000
44.21000 269.000
44.42000 281.000
44.63000 264.000
44.84000 259.000
45.05000 262.000
45.26000 246.000
45.47000 272.000
45.68000 280.000
45.89000 286.000
46.10000 262.000
46.31000 217.000
46.52000 247.000
46.73000 254.000
46.94000 219.000
47.15000 232.000
47.36000 212.000
47.57000 212.000
47.78000 224.000
47.99000 236.000
48.20000 214.000
48.41000 223.000
48.62000 214.000
48.83000 224.000
49.04000 219.000
49.25000 201.000
49.46000 209.000
49.67000 207.000
49.88000 203.000
50.09000 208.000
50.30000 197.000
50.51000 208.000
50.72000 191.000
50.93000 205.000
51.14000 212.000
51.35000 186.000
51.56000 193.000
51.77000 211.000
51.98000 198.000
52.19000 213.000
52.40000 210.000
52.61000 194.000
52.82000 178.000
53.03000 207.000
53.24000 213.000
53.45000 196.000
53.66000 200.000
53.87000 183.000
54.08000 202.000
54.29000 184.000
54.50000 185.000
54.71000 222.000
54.92000 201.000
55.13000 190.000
55.34000 202.000
55.55000 206.000
55.76000 198.000
55.97000 233.000
56.18000 211.000
56.39000 215.000
56.60000 209.000
56.81000 199.000
57.02000 222.000
57.23000 227.000
57.44000 202.000
57.65000 205.000
57.86000 178.000
58.07000 172.000
58.28000 187.000
58.49000 175.000
58.70000 165.000
58.91000 148.000
59.12000 178.000
59.33000 161.000
59.54000 168.000
59.75000 152.000
59.96000 166.000
60.17000 162.000
60.38000 164.000
60.59000 158.000
60.80000 137.000
61.01000 165.000
61.22000 136.000
61.43000 151.000
61.64000 155.000
61.85000 151.000
61.98500 138.000

File: HSC079.xy
2.00000 6.000
2.21000 4.000
2.42000 0.000
2.63000 1.000
2.84000 1.000
3.05000 4.000
3.26000 55.000
3.47000 164.000
3.68000 177.000
3.89000 165.000
4.10000 185.000
4.31000 209.000
4.52000 214.000
4.73000 201.000
4.94000 215.000
5.15000 231.000
5.36000 216.000
5.57000 223.000
5.78000 219.000
5.99000 257.000
6.20000 237.000
6.41000 245.000
6.62000 267.000
6.83000 282.000
7.04000 259.000
7.25000 269.000
7.46000 283.000
7.67000 285.000
7.88000 289.000
8.09000 288.000
8.30000 280.000
8.51000 312.000
8.72000 285.000
8.93000 300.000
9.14000 294.000
9.35000 308.000
9.56000 318.000
9.77000 284.000
9.98000 342.000
10.19000 325.000
10.40000 296.000
10.61000 310.000
10.82000 296.000
11.03000 337.000
11.24000 283.000
11.45000 318.000
11.66000 354.000
11.87000 307.000
12.08000 299.000
12.29000 309.000
12.50000 322.000
12.71000 312.000
12.92000 334.000
13.13000 303.000
13.34000 339.000
13.55000 354.000
13.76000 344.000
13.97000 326.000
14.18000 346.000
14.39000 319.000
14.60000 343.000
14.81000 360.000
15.02000 340.000
15.23000 353.000
15.44000 381.000
15.65000 360.000
15.86000 409.000
16.07000 326.000
16.28000 368.000
16.49000 345.000
16.70000 399.000
16.91000 368.000
17.12000 349.000
17.33000 355.000
17.54000 384.000
17.75000 376.000
17.96000 378.000
18.17000 313.000
18.38000 372.000
18.59000 339.000
18.80000 365.000
19.01000 372.000
19.22000 374.000
19.43000 342.000
19.64000 373.000
19.85000 369.000
20.06000 361.000
20.27000 362.000
20.48000 373.000
20.69000 374.000
20.90000 353.000
21.11000 384.000
21.32000 392.000
21.53000 362.000
21.74000 390.000
21.95000 372.000
22.16000 358.000
22.37000 378.000
22.58000 356.000
22.79000 407.000
23.00000 388.000
23.21000 368.000
23.42000 370.000
23.63000 375.000
23.84000 367.000
24.05000 369.000
24.26000 342.000
24.47000 370.000
24.68000 376.000
24.89000 359.000
25.10000 362.000
25.31000 336.000
25.52000 350.000
25.73000 354.000
25.94000 412.000
26.15000 388.000
26.36000 394.000
26.57000 397.000
26.78000 400.000
26.99000 400.000
27.20000 388.000
27.41000 528.000
27.62000 894.000
27.83000 2968.000
28.04000 875.000
28.25000 507.000
28.46000 466.000
28.67000 405.000
28.88000 378.000
29.09000 363.000
29.30000 395.000
29.51000 411.000
29.72000 352.000
29.93000 342.000
30.14000 354.000
30.35000 325.000
30.56000 338.000
30.77000 324.000
30.98000 304.000
31.19000 293.000
31.40000 285.000
31.61000 298.000
31.82000 277.000
32.03000 279.000
32.24000 270.000
32.45000 274.000
32.66000 262.000
32.87000 267.000
33.08000 247.000
33.29000 250.000
33.50000 240.000
33.71000 239.000
33.92000 236.000
34.13000 229.000
34.34000 248.000
34.55000 220.000
34.76000 228.000
34.97000 222.000
35.18000 219.000
35.39000 231.000
35.60000 222.000
35.81000 228.000
36.02000 212.000
36.23000 196.000
36.44000 210.000
36.65000 197.000
36.86000 217.000
37.07000 213.000
37.28000 190.000
37.49000 190.000
37.70000 185.000
37.91000 170.000
38.12000 196.000
38.33000 167.000
38.54000 178.000
38.75000 202.000
38.96000 192.000
39.17000 193.000
39.38000 186.000
39.59000 183.000
39.80000 198.000
40.01000 158.000
40.22000 183.000
40.43000 180.000
40.64000 172.000
40.85000 159.000
41.06000 174.000
41.27000 186.000
41.48000 187.000
41.69000 168.000
41.90000 171.000
42.11000 166.000
42.32000 175.000
42.53000 174.000
42.74000 176.000
42.95000 178.000
43.16000 178.000
43.37000 165.000
43.58000 171.000
43.79000 148.000
44.00000 163.000
44.21000 169.000
44.42000 186.000
44.63000 164.000
44.84000 153.000
45.05000 145.000
45.26000 147.000
45.47000 152.000
45.68000 153.000
45.89000 171.000
46.10000 154.000
46.31000 147.000
46.52000 135.000
46.73000 161.000
46.94000 139.000
47.15000 151.000
47.36000 160.000
47.57000 143.000
47.78000 150.000
47.99000 120.000
48.20000 132.000
48.41000 131.000
48.62000 137.000
48.83000 135.000
49.04000 143.000
49.25000 157.000
49.46000 139.000
49.67000 134.000
49.88000 137.000
50.09000 125.000
50.30000 140.000
50.51000 136.000
50.72000 135.000
50.93000 127.000
51.14000 141.000
51.35000 152.000
51.56000 147.000
51.77000 122.000
51.98000 123.000
52.19000 118.000
52.40000 131.000
52.61000 120.000
52.82000 134.000
53.03000 121.000
53.24000 112.000
53.45000 115.000
53.66000 120.000
53.87000 122.000
54.08000 126.000
54.29000 123.000
54.50000 121.000
54.71000 127.000
54.92000 98.000
55.13000 110.000
55.34000 133.000
55.55000 124.000
55.76000 118.000
55.97000 124.000
56.18000 126.000
56.39000 109.000
56.60000 114.000
56.81000 128.000
57.02000 135.000
57.23000 132.000
57.44000 163.000
57.65000 146.000
57.86000 130.000
58.07000 134.000
58.28000 120.000
58.49000 107.000
58.70000 116.000
58.91000 121.000
59.12000 125.000
59.33000 117.000
59.54000 106.000
59.75000 118.000
59.96000 119.000
60.17000 121.000
60.38000 122.000
60.59000 118.000
60.80000 102.000
61.01000 139.000
61.22000 121.000
61.43000 125.000
61.64000 107.000
61.85000 116.000
61.98500 118.000

File: HSC080.xy
2.00000 2.000
2.21000 1.000
2.42000 0.000
2.63000 2.000
2.84000 3.000
3.05000 3.000
3.26000 197.000
3.47000 277.000
3.68000 302.000
3.89000 271.000
4.10000 277.000
4.31000 266.000
4.52000 280.000
4.73000 311.000
4.94000 304.000
5.15000 316.000
5.36000 312.000
5.57000 314.000
5.78000 299.000
5.99000 317.000
6.20000 317.000
6.41000 333.000
6.62000 314.000
6.83000 306.000
7.04000 332.000
7.25000 330.000
7.46000 324.000
7.67000 314.000
7.88000 296.000
8.09000 336.000
8.30000 368.000
8.51000 320.000
8.72000 340.000
8.93000 290.000
9.14000 292.000
9.35000 281.000
9.56000 287.000
9.77000 271.000
9.98000 271.000
10.19000 260.000
10.40000 286.000
10.61000 288.000
10.82000 279.000
11.03000 265.000
11.24000 266.000
11.45000 284.000
11.66000 274.000
11.87000 273.000
12.08000 267.000
12.29000 298.000
12.50000 257.000
12.71000 248.000
12.92000 242.000
13.13000 283.000
13.34000 291.000
13.55000 282.000
13.76000 278.000
13.97000 283.000
14.18000 304.000
14.39000 285.000
14.60000 277.000
14.81000 270.000
15.02000 292.000
15.23000 298.000
15.44000 299.000
15.65000 283.000
15.86000 289.000
16.07000 317.000
16.28000 274.000
16.49000 299.000
16.70000 305.000
16.91000 312.000
17.12000 307.000
17.33000 313.000
17.54000 329.000
17.75000 308.000
17.96000 327.000
18.17000 314.000
18.38000 346.000
18.59000 336.000
18.80000 346.000
19.01000 361.000
19.22000 363.000
19.43000 384.000
19.64000 337.000
19.85000 375.000
20.06000 347.000
20.27000 382.000
20.48000 374.000
20.69000 396.000
20.90000 385.000
21.11000 396.000
21.32000 403.000
21.53000 407.000
21.74000 439.000
21.95000 444.000
22.16000 408.000
22.37000 405.000
22.58000 411.000
22.79000 432.000
23.00000 466.000
23.21000 457.000
23.42000 436.000
23.63000 454.000
23.84000 468.000
24.05000 459.000
24.26000 424.000
24.47000 468.000
24.68000 433.000
24.89000 413.000
25.10000 416.000
25.31000 440.000
25.52000 409.000
25.73000 408.000
25.94000 411.000
26.15000 406.000
26.36000 396.000
26.57000 395.000
26.78000 410.000
26.99000 400.000
27.20000 366.000
27.41000 378.000
27.62000 353.000
27.83000 352.000
28.04000 338.000
28.25000 325.000
28.46000 310.000
28.67000 337.000
28.88000 300.000
29.09000 322.000
29.30000 340.000
29.51000 315.000
29.72000 294.000
29.93000 291.000
30.14000 316.000
30.35000 328.000
30.56000 276.000
30.77000 272.000
30.98000 258.000
31.19000 267.000
31.40000 251.000
31.61000 254.000
31.82000 238.000
32.03000 245.000
32.24000 265.000
32.45000 241.000
32.66000 218.000
32.87000 221.000
33.08000 217.000
33.29000 221.000
33.50000 228.000
33.71000 214.000
33.92000 193.000
34.13000 234.000
34.34000 228.000
34.55000 211.000
34.76000 192.000
34.97000 215.000
35.18000 190.000
35.39000 188.000
35.60000 201.000
35.81000 171.000
36.02000 159.000
36.23000 175.000
36.44000 173.000
36.65000 182.000
36.86000 157.000
37.07000 168.000
37.28000 176.000
37.49000 174.000
37.70000 157.000
37.91000 137.000
38.12000 168.000
38.33000 169.000
38.54000 170.000
38.75000 155.000
38.96000 146.000
39.17000 130.000
39.38000 149.000
39.59000 158.000
39.80000 175.000
40.01000 169.000
40.22000 140.000
40.43000 156.000
40.64000 138.000
40.85000 151.000
41.06000 133.000
41.27000 148.000
41.48000 153.000
41.69000 145.000
41.90000 122.000
42.11000 131.000
42.32000 143.000
42.53000 136.000
42.74000 157.000
42.95000 127.000
43.16000 154.000
43.37000 140.000
43.58000 135.000
43.79000 139.000
44.00000 148.000
44.21000 156.000
44.42000 126.000
44.63000 126.000
44.84000 143.000
45.05000 144.000
45.26000 145.000
45.47000 150.000
45.68000 138.000
45.89000 137.000
46.10000 138.000
46.31000 148.000
46.52000 127.000
46.73000 149.000
46.94000 128.000
47.15000 146.000
47.36000 146.000
47.57000 143.000
47.78000 140.000
47.99000 135.000
48.20000 128.000
48.41000 125.000
48.62000 117.000
48.83000 116.000
49.04000 122.000
49.25000 126.000
49.46000 125.000
49.67000 118.000
49.88000 118.000
50.09000 130.000
50.30000 113.000
50.51000 118.000
50.72000 115.000
50.93000 136.000
51.14000 119.000
51.35000 128.000
51.56000 126.000
51.77000 115.000
51.98000 125.000
52.19000 135.000
52.40000 123.000
52.61000 124.000
52.82000 133.000
53.03000 107.000
53.24000 102.000
53.45000 129.000
53.66000 117.000
53.87000 112.000
54.08000 117.000
54.29000 120.000
54.50000 107.000
54.71000 125.000
54.92000 117.000
55.13000 135.000
55.34000 116.000
55.55000 106.000
55.76000 112.000
55.97000 121.000
56.18000 127.000
56.39000 119.000
56.60000 119.000
56.81000 111.000
57.02000 130.000
57.23000 113.000
57.44000 123.000
57.65000 117.000
57.86000 122.000
58.07000 112.000
58.28000 113.000
58.49000 111.000
58.70000 100.000
58.91000 127.000
59.12000 116.000
59.33000 95.000
59.54000 122.000
59.75000 97.000
59.96000 119.000
60.17000 125.000
60.38000 113.000
60.59000 111.000
60.80000 110.000
61.01000 109.000
61.22000 106.000
61.43000 134.000
61.64000 115.000
61.85000 113.000
61.98500 117.000

File: HSC081_kurzgemessen.xy
2.00000 0.000
2.21000 2.000
2.42000 1.000
2.63000 0.000
2.84000 1.000
3.05000 3.000
3.26000 25.000
3.47000 47.000
3.68000 66.000
3.89000 55.000
4.10000 73.000
4.31000 81.000
4.52000 72.000
4.73000 101.000
4.94000 98.000
5.15000 99.000
5.36000 116.000
5.57000 125.000
5.78000 122.000
5.99000 118.000
6.20000 129.000
6.41000 123.000
6.62000 129.000
6.83000 129.000
7.04000 152.000
7.25000 116.000
7.46000 137.000
7.67000 131.000
7.88000 138.000
8.09000 127.000
8.30000 137.000
8.51000 141.000
8.72000 160.000
8.93000 150.000
9.14000 147.000
9.35000 121.000
9.56000 141.000
9.77000 141.000
9.98000 135.000
10.19000 147.000
10.40000 144.000
10.61000 142.000
10.82000 154.000
11.03000 153.000
11.24000 145.000
11.45000 160.000
11.66000 153.000
11.87000 163.000
12.08000 152.000
12.29000 165.000
12.50000 159.000
12.71000 179.000
12.92000 204.000
13.13000 1212.000
13.34000 168.000
13.55000 150.000
13.76000 140.000
13.97000 156.000
14.18000 149.000
14.39000 146.000
14.60000 162.000
14.81000 478.000
15.02000 147.000
15.23000 175.000
15.44000 131.000
15.65000 137.000
15.86000 160.000
16.07000 162.000
16.28000 167.000
16.49000 170.000
16.70000 176.000
16.91000 158.000
17.12000 160.000
17.33000 265.000
17.54000 445.000
17.75000 1498.000
17.96000 358.000
18.17000 171.000
18.38000 160.000
18.59000 172.000
18.80000 159.000
19.01000 157.000
19.22000 158.000
19.43000 163.000
19.64000 143.000
19.85000 163.000
20.06000 167.000
20.27000 169.000
20.48000 177.000
20.69000 176.000
20.90000 170.000
21.11000 167.000
21.32000 205.000
21.53000 513.000
21.74000 452.000
21.95000 397.000
22.16000 317.000
22.37000 172.000
22.58000 159.000
22.79000 175.000
23.00000 160.000
23.21000 177.000
23.42000 181.000
23.63000 175.000
23.84000 173.000
24.05000 183.000
24.26000 180.000
24.47000 167.000
24.68000 172.000
24.89000 168.000
25.10000 191.000
25.31000 194.000
25.52000 277.000
25.73000 1027.000
25.94000 260.000
26.15000 3050.000
26.36000 375.000
26.57000 222.000
26.78000 186.000
26.99000 420.000
27.20000 435.000
27.41000 172.000
27.62000 154.000
27.83000 153.000
28.04000 206.000
28.25000 160.000
28.46000 215.000
28.67000 275.000
28.88000 1017.000
29.09000 210.000
29.30000 169.000
29.51000 191.000
29.72000 532.000
29.93000 353.000
30.14000 165.000
30.35000 326.000
30.56000 171.000
30.77000 147.000
30.98000 142.000
31.19000 141.000
31.40000 132.000
31.61000 145.000
31.82000 145.000
32.03000 137.000
32.24000 145.000
32.45000 131.000
32.66000 128.000
32.87000 120.000
33.08000 120.000
33.29000 160.000
33.50000 171.000
33.71000 135.000
33.92000 167.000
34.13000 125.000
34.34000 245.000
34.55000 111.000
34.76000 128.000
34.97000 154.000
35.18000 131.000
35.39000 104.000
35.60000 123.000
35.81000 531.000
36.02000 166.000
36.23000 683.000
36.44000 323.000
36.65000 184.000
36.86000 129.000
37.07000 220.000
37.28000 136.000
37.49000 123.000
37.70000 183.000
37.91000 102.000
38.12000 96.000
38.33000 1092.000
38.54000 128.000
38.75000 97.000
38.96000 89.000
39.17000 95.000
39.38000 91.000
39.59000 133.000
39.80000 93.000
40.01000 105.000
40.22000 83.000
40.43000 99.000
40.64000 98.000
40.85000 95.000
41.06000 140.000
41.27000 93.000
41.48000 80.000
41.69000 122.000
41.90000 133.000
42.11000 93.000
42.32000 90.000
42.53000 202.000
42.74000 96.000
42.95000 99.000
43.16000 98.000
43.37000 89.000
43.58000 91.000
43.79000 151.000
44.00000 195.000
44.21000 114.000
44.42000 74.000
44.63000 114.000
44.84000 436.000
45.05000 131.000
45.26000 107.000
45.47000 125.000
45.68000 121.000
45.89000 97.000
46.10000 92.000
46.31000 114.000
46.52000 88.000
46.73000 85.000
46.94000 113.000
47.15000 114.000
47.36000 91.000
47.57000 986.000
47.78000 79.000
47.99000 82.000
48.20000 101.000
48.41000 135.000
48.62000 96.000
48.83000 81.000
49.04000 89.000
49.25000 92.000
49.46000 87.000
49.67000 95.000
49.88000 72.000
50.09000 135.000
50.30000 289.000
50.51000 116.000
50.72000 71.000
50.93000 83.000
51.14000 94.000
51.35000 89.000
51.56000 93.000
51.77000 104.000
51.98000 92.000
52.19000 126.000
52.40000 95.000
52.61000 94.000
52.82000 131.000
53.03000 349.000
53.24000 78.000
53.45000 82.000
53.66000 119.000
53.87000 74.000
54.08000 91.000
54.29000 104.000
54.50000 213.000
54.71000 93.000
54.92000 138.000
55.13000 153.000
55.34000 221.000
55.55000 218.000
55.76000 126.000
55.97000 88.000
56.18000 246.000
56.39000 87.000
56.60000 103.000
56.81000 95.000
57.02000 86.000
57.23000 143.000
57.44000 87.000
57.65000 79.000
57.86000 92.000
58.07000 81.000
58.28000 77.000
58.49000 83.000
58.70000 63.000
58.91000 90.000
59.12000 79.000
59.33000 83.000
59.54000 73.000
59.75000 76.000
59.96000 105.000
60.17000 93.000
60.38000 72.000
60.59000 136.000
60.80000 71.000
61.01000 62.000
61.22000 71.000
61.43000 71.000
61.64000 70.000
61.85000 84.000
61.98500 105.000

File: HSC085.xyd
2.00000 2.000
2.21000 4.000
2.42000 2.000
2.63000 1.000
2.84000 4.000
3.05000 20.000
3.26000 110.000
3.47000 126.000
3.68000 142.000
3.89000 144.000
4.10000 176.000
4.31000 167.000
4.52000 178.000
4.73000 211.000
4.94000 198.000
5.15000 245.000
5.36000 227.000
5.57000 231.000
5.78000 228.000
5.99000 238.000
6.20000 255.000
6.41000 255.000
6.62000 257.000
6.83000 281.000
7.04000 277.000
7.25000 294.000
7.46000 262.000
7.67000 276.000
7.88000 304.000
8.09000 252.000
8.30000 271.000
8.51000 301.000
8.72000 290.000
8.93000 296.000
9.14000 285.000
9.35000 296.000
9.56000 288.000
9.77000 295.000
9.98000 270.000
10.19000 292.000
10.40000 302.000
10.61000 278.000
10.82000 284.000
11.03000 315.000
11.24000 305.000
11.45000 295.000
11.66000 311.000
11.87000 331.000
12.08000 1600.000
12.29000 10981.000
12.50000 391.000
12.71000 338.000
12.92000 294.000
13.13000 393.000
13.34000 775.000
13.55000 379.000
13.76000 440.000
13.97000 305.000
14.18000 311.000
14.39000 282.000
14.60000 296.000
14.81000 291.000
15.02000 306.000
15.23000 309.000
15.44000 284.000
15.65000 289.000
15.86000 315.000
16.07000 303.000
16.28000 355.000
16.49000 850.000
16.70000 340.000
16.91000 664.000
17.12000 296.000
17.33000 319.000
17.54000 301.000
17.75000 313.000
17.96000 440.000
18.17000 368.000
18.38000 311.000
18.59000 293.000
18.80000 319.000
19.01000 285.000
19.22000 327.000
19.43000 1503.000
19.64000 1764.000
19.85000 327.000
20.06000 303.000
20.27000 308.000
20.48000 356.000
20.69000 360.000
20.90000 314.000
21.11000 341.000
21.32000 328.000
21.53000 380.000
21.74000 728.000
21.95000 351.000
22.16000 521.000
22.37000 334.000
22.58000 325.000
22.79000 302.000
23.00000 325.000
23.21000 322.000
23.42000 299.000
23.63000 331.000
23.84000 374.000
24.05000 366.000
24.26000 428.000
24.47000 331.000
24.68000 784.000
24.89000 363.000
25.10000 491.000
25.31000 422.000
25.52000 528.000
25.73000 4774.000
25.94000 472.000
26.15000 870.000
26.36000 881.000
26.57000 391.000
26.78000 343.000
26.99000 553.000
27.20000 434.000
27.41000 405.000
27.62000 865.000
27.83000 4264.000
28.04000 406.000
28.25000 336.000
28.46000 381.000
28.67000 296.000
28.88000 305.000
29.09000 297.000
29.30000 276.000
29.51000 299.000
29.72000 319.000
29.93000 344.000
30.14000 1665.000
30.35000 414.000
30.56000 331.000
30.77000 1107.000
30.98000 338.000
31.19000 292.000
31.40000 259.000
31.61000 454.000
31.82000 340.000
32.03000 339.000
32.24000 247.000
32.45000 265.000
32.66000 236.000
32.87000 225.000
33.08000 248.000
33.29000 254.000
33.50000 346.000
33.71000 544.000
33.92000 314.000
34.13000 298.000
34.34000 235.000
34.55000 259.000
34.76000 224.000
34.97000 474.000
35.18000 213.000
35.39000 206.000
35.60000 194.000
35.81000 269.000
36.02000 196.000
36.23000 168.000
36.44000 176.000
36.65000 180.000
36.86000 185.000
37.07000 432.000
37.28000 187.000
37.49000 161.000
37.70000 163.000
37.91000 162.000
38.12000 164.000
38.33000 451.000
38.54000 212.000
38.75000 151.000
38.96000 164.000
39.17000 149.000
39.38000 159.000
39.59000 206.000
39.80000 185.000
40.01000 197.000
40.22000 176.000
40.43000 187.000
40.64000 296.000
40.85000 217.000
41.06000 302.000
41.27000 394.000
41.48000 155.000
41.69000 212.000
41.90000 205.000
42.11000 367.000
42.32000 176.000
42.53000 199.000
42.74000 191.000
42.95000 147.000
43.16000 156.000
43.37000 160.000
43.58000 156.000
43.79000 167.000
44.00000 233.000
44.21000 361.000
44.42000 194.000
44.63000 244.000
44.84000 179.000
45.05000 265.000
45.26000 155.000
45.47000 141.000
45.68000 154.000
45.89000 132.000
46.10000 152.000
46.31000 212.000
46.52000 156.000
46.73000 200.000
46.94000 312.000
47.15000 237.000
47.36000 186.000
47.57000 183.000
47.78000 166.000
47.99000 152.000
48.20000 133.000
48.41000 146.000
48.62000 150.000
48.83000 155.000
49.04000 236.000
49.25000 154.000
49.46000 148.000
49.67000 402.000
49.88000 138.000
50.09000 170.000
50.30000 261.000
50.51000 264.000
50.72000 167.000
50.93000 133.000
51.14000 143.000
51.35000 177.000
51.56000 157.000
51.77000 185.000
51.98000 162.000
52.19000 180.000
52.40000 128.000
52.61000 123.000
52.82000 139.000
53.03000 172.000
53.24000 138.000
53.45000 275.000
53.66000 139.000
53.87000 147.000
54.08000 291.000
54.29000 140.000
54.50000 163.000
54.71000 158.000
54.92000 244.000
55.13000 392.000
55.34000 184.000
55.55000 181.000
55.76000 145.000
55.97000 125.000
56.18000 126.000
56.39000 123.000
56.60000 169.000
56.81000 198.000
57.02000 171.000
57.23000 192.000
57.44000 252.000
57.65000 128.000
57.86000 132.000
58.07000 140.000
58.28000 159.000
58.49000 125.000
58.70000 113.000
58.91000 130.000
59.12000 139.000
59.33000 126.000
59.54000 124.000
59.75000 144.000
59.96000 237.000
60.17000 166.000
60.38000 200.000
60.59000 165.000
60.80000 125.000
61.01000 152.000
61.22000 126.000
61.43000 122.000
61.64000 124.000
61.85000 109.000
61.98500 128.000