Folder: phd-thesis/ISoD/xrd_data (part 14)

File: HSC075_2.xy
2.00000 6.000
2.21000 3.000
2.42000 6.000
2.63000 5.000
2.84000 3.000
3.05000 4.000
3.26000 127.000
3.47000 410.000
3.68000 376.000
3.89000 351.000
4.10000 315.000
4.31000 306.000
4.52000 339.000
4.73000 306.000
4.94000 300.000
5.15000 326.000
5.36000 315.000
5.57000 354.000
5.78000 448.000
5.99000 746.000
6.20000 1324.000
6.41000 580.000
6.62000 341.000
6.83000 331.000
7.04000 325.000
7.25000 279.000
7.46000 316.000
7.67000 335.000
7.88000 323.000
8.09000 338.000
8.30000 391.000
8.51000 459.000
8.72000 515.000
8.93000 451.000
9.14000 363.000
9.35000 370.000
9.56000 408.000
9.77000 483.000
9.98000 734.000
10.19000 878.000
10.40000 1217.000
10.61000 906.000
10.82000 632.000
11.03000 1127.000
11.24000 427.000
11.45000 360.000
11.66000 354.000
11.87000 321.000
12.08000 376.000
12.29000 394.000
12.50000 428.000
12.71000 398.000
12.92000 367.000
13.13000 331.000
13.34000 354.000
13.55000 312.000
13.76000 350.000
13.97000 346.000
14.18000 355.000
14.39000 346.000
14.60000 336.000
14.81000 341.000
15.02000 436.000
15.23000 322.000
15.44000 334.000
15.65000 386.000
15.86000 367.000
16.07000 376.000
16.28000 348.000
16.49000 367.000
16.70000 347.000
16.91000 348.000
17.12000 382.000
17.33000 408.000
17.54000 561.000
17.75000 478.000
17.96000 505.000
18.17000 475.000
18.38000 538.000
18.59000 682.000
18.80000 904.000
19.01000 791.000
19.22000 825.000
19.43000 470.000
19.64000 382.000
19.85000 389.000
20.06000 415.000
20.27000 398.000
20.48000 370.000
20.69000 367.000
20.90000 397.000
21.11000 443.000
21.32000 370.000
21.53000 372.000
21.74000 353.000
21.95000 355.000
22.16000 373.000
22.37000 323.000
22.58000 353.000
22.79000 415.000
23.00000 411.000
23.21000 402.000
23.42000 388.000
23.63000 356.000
23.84000 418.000
24.05000 382.000
24.26000 397.000
24.47000 593.000
24.68000 528.000
24.89000 668.000
25.10000 965.000
25.31000 843.000
25.52000 1123.000
25.73000 968.000
25.94000 848.000
26.15000 822.000
26.36000 743.000
26.57000 1387.000
26.78000 706.000
26.99000 712.000
27.20000 727.000
27.41000 830.000
27.62000 2029.000
27.83000 1531.000
28.04000 2202.000
28.25000 1420.000
28.46000 854.000
28.67000 691.000
28.88000 553.000
29.09000 521.000
29.30000 489.000
29.51000 467.000
29.72000 459.000
29.93000 479.000
30.14000 485.000
30.35000 496.000
30.56000 451.000
30.77000 425.000
30.98000 429.000
31.19000 339.000
31.40000 337.000
31.61000 438.000
31.82000 322.000
32.03000 467.000
32.24000 313.000
32.45000 335.000
32.66000 417.000
32.87000 313.000
33.08000 338.000
33.29000 310.000
33.50000 325.000
33.71000 374.000
33.92000 319.000
34.13000 300.000
34.34000 315.000
34.55000 273.000
34.76000 266.000
34.97000 290.000
35.18000 283.000
35.39000 304.000
35.60000 293.000
35.81000 464.000
36.02000 318.000
36.23000 326.000
36.44000 330.000
36.65000 292.000
36.86000 270.000
37.07000 289.000
37.28000 286.000
37.49000 286.000
37.70000 273.000
37.91000 244.000
38.12000 252.000
38.33000 257.000
38.54000 266.000
38.75000 314.000
38.96000 279.000
39.17000 249.000
39.38000 304.000
39.59000 255.000
39.80000 202.000
40.01000 225.000
40.22000 213.000
40.43000 215.000
40.64000 210.000
40.85000 256.000
41.06000 224.000
41.27000 190.000
41.48000 207.000
41.69000 210.000
41.90000 191.000
42.11000 208.000
42.32000 238.000
42.53000 235.000
42.74000 199.000
42.95000 215.000
43.16000 238.000
43.37000 232.000
43.58000 191.000
43.79000 182.000
44.00000 197.000
44.21000 203.000
44.42000 197.000
44.63000 189.000
44.84000 200.000
45.05000 218.000
45.26000 219.000
45.47000 261.000
45.68000 223.000
45.89000 184.000
46.10000 186.000
46.31000 227.000
46.52000 178.000
46.73000 184.000
46.94000 203.000
47.15000 173.000
47.36000 198.000
47.57000 184.000
47.78000 223.000
47.99000 217.000
48.20000 186.000
48.41000 189.000
48.62000 189.000
48.83000 183.000
49.04000 216.000
49.25000 210.000
49.46000 182.000
49.67000 161.000
49.88000 174.000
50.09000 166.000
50.30000 167.000
50.51000 191.000
50.72000 178.000
50.93000 184.000
51.14000 161.000
51.35000 182.000
51.56000 163.000
51.77000 192.000
51.98000 191.000
52.19000 197.000
52.40000 201.000
52.61000 184.000
52.82000 192.000
53.03000 191.000
53.24000 165.000
53.45000 203.000
53.66000 197.000
53.87000 228.000
54.08000 212.000
54.29000 179.000
54.50000 169.000
54.71000 180.000
54.92000 183.000
55.13000 199.000
55.34000 205.000
55.55000 169.000
55.76000 221.000
55.97000 184.000
56.18000 192.000
56.39000 183.000
56.60000 176.000
56.81000 181.000
57.02000 178.000
57.23000 161.000
57.44000 174.000
57.65000 184.000
57.86000 184.000
58.07000 193.000
58.28000 156.000
58.49000 206.000
58.70000 177.000
58.91000 168.000
59.12000 153.000
59.33000 145.000
59.54000 154.000
59.75000 177.000
59.96000 160.000
60.17000 158.000
60.38000 164.000
60.59000 153.000
60.80000 151.000
61.01000 163.000
61.22000 151.000
61.43000 156.000
61.64000 120.000
61.85000 133.000
61.98500 148.000

File: HSC076.xy
2.00000 4.000
2.21000 3.000
2.42000 3.000
2.63000 6.000
2.84000 4.000
3.05000 3.000
3.26000 95.000
3.47000 278.000
3.68000 290.000
3.89000 281.000
4.10000 270.000
4.31000 271.000
4.52000 246.000
4.73000 285.000
4.94000 288.000
5.15000 321.000
5.36000 296.000
5.57000 360.000
5.78000 368.000
5.99000 534.000
6.20000 1108.000
6.41000 419.000
6.62000 359.000
6.83000 344.000
7.04000 346.000
7.25000 343.000
7.46000 360.000
7.67000 370.000
7.88000 337.000
8.09000 394.000
8.30000 391.000
8.51000 431.000
8.72000 459.000
8.93000 500.000
9.14000 383.000
9.35000 414.000
9.56000 397.000
9.77000 421.000
9.98000 506.000
10.19000 662.000
10.40000 1605.000
10.61000 1068.000
10.82000 941.000
11.03000 1388.000
11.24000 564.000
11.45000 475.000
11.66000 434.000
11.87000 413.000
12.08000 414.000
12.29000 534.000
12.50000 607.000
12.71000 419.000
12.92000 432.000
13.13000 382.000
13.34000 408.000
13.55000 430.000
13.76000 410.000
13.97000 430.000
14.18000 431.000
14.39000 416.000
14.60000 422.000
14.81000 438.000
15.02000 635.000
15.23000 438.000
15.44000 438.000
15.65000 410.000
15.86000 406.000
16.07000 427.000
16.28000 462.000
16.49000 456.000
16.70000 450.000
16.91000 474.000
17.12000 466.000
17.33000 504.000
17.54000 537.000
17.75000 513.000
17.96000 637.000
18.17000 505.000
18.38000 471.000
18.59000 597.000
18.80000 766.000
19.01000 622.000
19.22000 1163.000
19.43000 499.000
19.64000 467.000
19.85000 471.000
20.06000 456.000
20.27000 485.000
20.48000 471.000
20.69000 477.000
20.90000 542.000
21.11000 543.000
21.32000 539.000
21.53000 483.000
21.74000 452.000
21.95000 421.000
22.16000 486.000
22.37000 496.000
22.58000 452.000
22.79000 523.000
23.00000 508.000
23.21000 497.000
23.42000 514.000
23.63000 509.000
23.84000 478.000
24.05000 529.000
24.26000 560.000
24.47000 958.000
24.68000 602.000
24.89000 617.000
25.10000 907.000
25.31000 780.000
25.52000 1159.000
25.73000 996.000
25.94000 775.000
26.15000 889.000
26.36000 733.000
26.57000 1748.000
26.78000 757.000
26.99000 672.000
27.20000 726.000
27.41000 808.000
27.62000 1765.000
27.83000 1206.000
28.04000 1991.000
28.25000 1630.000
28.46000 914.000
28.67000 669.000
28.88000 560.000
29.09000 559.000
29.30000 550.000
29.51000 582.000
29.72000 520.000
29.93000 511.000
30.14000 540.000
30.35000 786.000
30.56000 669.000
30.77000 469.000
30.98000 516.000
31.19000 388.000
31.40000 435.000
31.61000 557.000
31.82000 408.000
32.03000 499.000
32.24000 396.000
32.45000 376.000
32.66000 481.000
32.87000 360.000
33.08000 465.000
33.29000 361.000
33.50000 374.000
33.71000 529.000
33.92000 451.000
34.13000 402.000
34.34000 344.000
34.55000 355.000
34.76000 325.000
34.97000 328.000
35.18000 344.000
35.39000 367.000
35.60000 331.000
35.81000 581.000
36.02000 315.000
36.23000 272.000
36.44000 311.000
36.65000 290.000
36.86000 279.000
37.07000 276.000
37.28000 287.000
37.49000 326.000
37.70000 261.000
37.91000 255.000
38.12000 267.000
38.33000 254.000
38.54000 319.000
38.75000 408.000
38.96000 302.000
39.17000 299.000
39.38000 324.000
39.59000 297.000
39.80000 231.000
40.01000 269.000
40.22000 254.000
40.43000 523.000
40.64000 350.000
40.85000 403.000
41.06000 252.000
41.27000 233.000
41.48000 224.000
41.69000 234.000
41.90000 240.000
42.11000 248.000
42.32000 307.000
42.53000 275.000
42.74000 251.000
42.95000 268.000
43.16000 271.000
43.37000 311.000
43.58000 246.000
43.79000 216.000
44.00000 235.000
44.21000 279.000
44.42000 252.000
44.63000 255.000
44.84000 267.000
45.05000 263.000
45.26000 243.000
45.47000 302.000
45.68000 241.000
45.89000 226.000
46.10000 232.000
46.31000 232.000
46.52000 205.000
46.73000 208.000
46.94000 229.000
47.15000 244.000
47.36000 207.000
47.57000 206.000
47.78000 232.000
47.99000 237.000
48.20000 208.000
48.41000 238.000
48.62000 199.000
48.83000 239.000
49.04000 262.000
49.25000 242.000
49.46000 217.000
49.67000 192.000
49.88000 261.000
50.09000 292.000
50.30000 271.000
50.51000 247.000
50.72000 225.000
50.93000 208.000
51.14000 219.000
51.35000 182.000
51.56000 208.000
51.77000 198.000
51.98000 223.000
52.19000 228.000
52.40000 223.000
52.61000 200.000
52.82000 235.000
53.03000 278.000
53.24000 226.000
53.45000 245.000
53.66000 205.000
53.87000 256.000
54.08000 263.000
54.29000 228.000
54.50000 191.000
54.71000 209.000
54.92000 198.000
55.13000 204.000
55.34000 216.000
55.55000 199.000
55.76000 231.000
55.97000 204.000
56.18000 200.000
56.39000 194.000
56.60000 186.000
56.81000 197.000
57.02000 210.000
57.23000 184.000
57.44000 186.000
57.65000 181.000
57.86000 206.000
58.07000 231.000
58.28000 212.000
58.49000 244.000
58.70000 223.000
58.91000 178.000
59.12000 178.000
59.33000 177.000
59.54000 190.000
59.75000 165.000
59.96000 168.000
60.17000 195.000
60.38000 158.000
60.59000 159.000
60.80000 169.000
61.01000 165.000
61.22000 164.000
61.43000 168.000
61.64000 156.000
61.85000 164.000
61.98500 176.000

File: HSC076_nSaeure.xy
2.00000 0.000
2.21000 3.000
2.42000 3.000
2.63000 0.000
2.84000 4.000
3.05000 1.000
3.26000 97.000
3.47000 171.000
3.68000 169.000
3.89000 166.000
4.10000 205.000
4.31000 196.000
4.52000 211.000
4.73000 178.000
4.94000 226.000
5.15000 236.000
5.36000 210.000
5.57000 219.000
5.78000 210.000
5.99000 229.000
6.20000 227.000
6.41000 249.000
6.62000 238.000
6.83000 273.000
7.04000 245.000
7.25000 293.000
7.46000 290.000
7.67000 264.000
7.88000 287.000
8.09000 265.000
8.30000 260.000
8.51000 270.000
8.72000 269.000
8.93000 283.000
9.14000 286.000
9.35000 257.000
9.56000 277.000
9.77000 261.000
9.98000 257.000
10.19000 277.000
10.40000 276.000
10.61000 281.000
10.82000 289.000
11.03000 261.000
11.24000 306.000
11.45000 250.000
11.66000 255.000
11.87000 299.000
12.08000 268.000
12.29000 308.000
12.50000 279.000
12.71000 337.000
12.92000 313.000
13.13000 297.000
13.34000 321.000
13.55000 400.000
13.76000 469.000
13.97000 377.000
14.18000 334.000
14.39000 347.000
14.60000 319.000
14.81000 325.000
15.02000 333.000
15.23000 347.000
15.44000 357.000
15.65000 394.000
15.86000 996.000
16.07000 659.000
16.28000 434.000
16.49000 522.000
16.70000 344.000
16.91000 322.000
17.12000 375.000
17.33000 359.000
17.54000 371.000
17.75000 418.000
17.96000 498.000
18.17000 620.000
18.38000 588.000
18.59000 661.000
18.80000 520.000
19.01000 431.000
19.22000 479.000
19.43000 481.000
19.64000 391.000
19.85000 363.000
20.06000 325.000
20.27000 308.000
20.48000 324.000
20.69000 323.000
20.90000 327.000
21.11000 320.000
21.32000 335.000
21.53000 314.000
21.74000 322.000
21.95000 344.000
22.16000 354.000
22.37000 493.000
22.58000 403.000
22.79000 350.000
23.00000 350.000
23.21000 359.000
23.42000 370.000
23.63000 390.000
23.84000 504.000
24.05000 401.000
24.26000 325.000
24.47000 362.000
24.68000 425.000
24.89000 417.000
25.10000 387.000
25.31000 443.000
25.52000 436.000
25.73000 414.000
25.94000 416.000
26.15000 423.000
26.36000 484.000
26.57000 618.000
26.78000 1161.000
26.99000 2324.000
27.20000 1439.000
27.41000 893.000
27.62000 3104.000
27.83000 1396.000
28.04000 720.000
28.25000 496.000
28.46000 468.000
28.67000 503.000
28.88000 474.000
29.09000 458.000
29.30000 399.000
29.51000 418.000
29.72000 343.000
29.93000 379.000
30.14000 346.000
30.35000 349.000
30.56000 352.000
30.77000 377.000
30.98000 382.000
31.19000 389.000
31.40000 369.000
31.61000 407.000
31.82000 424.000
32.03000 574.000
32.24000 565.000
32.45000 507.000
32.66000 554.000
32.87000 533.000
33.08000 592.000
33.29000 546.000
33.50000 416.000
33.71000 395.000
33.92000 318.000
34.13000 309.000
34.34000 316.000
34.55000 298.000
34.76000 350.000
34.97000 289.000
35.18000 294.000
35.39000 343.000
35.60000 273.000
35.81000 286.000
36.02000 257.000
36.23000 264.000
36.44000 281.000
36.65000 261.000
36.86000 257.000
37.07000 262.000
37.28000 234.000
37.49000 240.000
37.70000 223.000
37.91000 197.000
38.12000 205.000
38.33000 218.000
38.54000 233.000
38.75000 211.000
38.96000 218.000
39.17000 249.000
39.38000 227.000
39.59000 239.000
39.80000 213.000
40.01000 233.000
40.22000 238.000
40.43000 231.000
40.64000 191.000
40.85000 227.000
41.06000 214.000
41.27000 240.000
41.48000 226.000
41.69000 230.000
41.90000 199.000
42.11000 194.000
42.32000 230.000
42.53000 224.000
42.74000 218.000
42.95000 248.000
43.16000 238.000
43.37000 236.000
43.58000 215.000
43.79000 199.000
44.00000 178.000
44.21000 204.000
44.42000 191.000
44.63000 216.000
44.84000 181.000
45.05000 205.000
45.26000 208.000
45.47000 213.000
45.68000 210.000
45.89000 282.000
46.10000 214.000
46.31000 201.000
46.52000 175.000
46.73000 197.000
46.94000 197.000
47.15000 199.000
47.36000 200.000
47.57000 174.000
47.78000 163.000
47.99000 167.000
48.20000 177.000
48.41000 192.000
48.62000 184.000
48.83000 222.000
49.04000 216.000
49.25000 226.000
49.46000 204.000
49.67000 201.000
49.88000 171.000
50.09000 176.000
50.30000 193.000
50.51000 204.000
50.72000 185.000
50.93000 201.000
51.14000 182.000
51.35000 185.000
51.56000 184.000
51.77000 179.000
51.98000 167.000
52.19000 179.000
52.40000 169.000
52.61000 194.000
52.82000 194.000
53.03000 200.000
53.24000 214.000
53.45000 182.000
53.66000 168.000
53.87000 164.000
54.08000 168.000
54.29000 159.000
54.50000 161.000
54.71000 171.000
54.92000 178.000
55.13000 177.000
55.34000 183.000
55.55000 179.000
55.76000 204.000
55.97000 178.000
56.18000 187.000
56.39000 181.000
56.60000 189.000
56.81000 183.000
57.02000 197.000
57.23000 228.000
57.44000 184.000
57.65000 175.000
57.86000 160.000
58.07000 175.000
58.28000 150.000
58.49000 175.000
58.70000 164.000
58.91000 181.000
59.12000 156.000
59.33000 168.000
59.54000 168.000
59.75000 149.000
59.96000 160.000
60.17000 170.000
60.38000 160.000
60.59000 173.000
60.80000 163.000
61.01000 149.000
61.22000 142.000
61.43000 137.000
61.64000 139.000
61.85000 121.000
61.98500 155.000

File: HSC077.xy
2.00000 3.000
2.21000 5.000
2.42000 6.000
2.63000 6.000
2.84000 3.000
3.05000 1.000
3.26000 99.000
3.47000 254.000
3.68000 260.000
3.89000 228.000
4.10000 208.000
4.31000 214.000
4.52000 220.000
4.73000 237.000
4.94000 223.000
5.15000 241.000
5.36000 221.000
5.57000 254.000
5.78000 252.000
5.99000 369.000
6.20000 697.000
6.41000 270.000
6.62000 250.000
6.83000 278.000
7.04000 249.000
7.25000 244.000
7.46000 258.000
7.67000 286.000
7.88000 261.000
8.09000 264.000
8.30000 275.000
8.51000 291.000
8.72000 348.000
8.93000 323.000
9.14000 281.000
9.35000 291.000
9.56000 296.000
9.77000 320.000
9.98000 354.000
10.19000 467.000
10.40000 958.000
10.61000 722.000
10.82000 595.000
11.03000 996.000
11.24000 384.000
11.45000 294.000
11.66000 287.000
11.87000 299.000
12.08000 263.000
12.29000 290.000
12.50000 408.000
12.71000 301.000
12.92000 278.000
13.13000 283.000
13.34000 296.000
13.55000 265.000
13.76000 289.000
13.97000 293.000
14.18000 285.000
14.39000 297.000
14.60000 299.000
14.81000 305.000
15.02000 380.000
15.23000 284.000
15.44000 281.000
15.65000 291.000
15.86000 262.000
16.07000 277.000
16.28000 292.000
16.49000 270.000
16.70000 297.000
16.91000 295.000
17.12000 322.000
17.33000 345.000
17.54000 414.000
17.75000 357.000
17.96000 385.000
18.17000 318.000
18.38000 336.000
18.59000 379.000
18.80000 503.000
19.01000 410.000
19.22000 638.000
19.43000 351.000
19.64000 301.000
19.85000 328.000
20.06000 312.000
20.27000 315.000
20.48000 313.000
20.69000 327.000
20.90000 338.000
21.11000 380.000
21.32000 337.000
21.53000 348.000
21.74000 290.000
21.95000 305.000
22.16000 322.000
22.37000 329.000
22.58000 310.000
22.79000 340.000
23.00000 325.000
23.21000 343.000
23.42000 322.000
23.63000 328.000
23.84000 339.000
24.05000 321.000
24.26000 320.000
24.47000 521.000
24.68000 393.000
24.89000 401.000
25.10000 585.000
25.31000 509.000
25.52000 741.000
25.73000 629.000
25.94000 475.000
26.15000 498.000
26.36000 447.000
26.57000 957.000
26.78000 454.000
26.99000 426.000
27.20000 435.000
27.41000 526.000
27.62000 1119.000
27.83000 956.000
28.04000 1564.000
28.25000 929.000
28.46000 539.000
28.67000 456.000
28.88000 375.000
29.09000 331.000
29.30000 377.000
29.51000 341.000
29.72000 340.000
29.93000 345.000
30.14000 331.000
30.35000 383.000
30.56000 344.000
30.77000 301.000
30.98000 329.000
31.19000 265.000
31.40000 268.000
31.61000 333.000
31.82000 278.000
32.03000 306.000
32.24000 261.000
32.45000 260.000
32.66000 322.000
32.87000 229.000
33.08000 275.000
33.29000 260.000
33.50000 247.000
33.71000 341.000
33.92000 309.000
34.13000 255.000
34.34000 258.000
34.55000 218.000
34.76000 189.000
34.97000 207.000
35.18000 216.000
35.39000 224.000
35.60000 216.000
35.81000 333.000
36.02000 195.000
36.23000 189.000
36.44000 225.000
36.65000 185.000
36.86000 191.000
37.07000 194.000
37.28000 202.000
37.49000 190.000
37.70000 193.000
37.91000 190.000
38.12000 170.000
38.33000 171.000
38.54000 189.000
38.75000 225.000
38.96000 212.000
39.17000 192.000
39.38000 221.000
39.59000 191.000
39.80000 177.000
40.01000 154.000
40.22000 158.000
40.43000 164.000
40.64000 154.000
40.85000 200.000
41.06000 146.000
41.27000 145.000
41.48000 147.000
41.69000 146.000
41.90000 167.000
42.11000 164.000
42.32000 169.000
42.53000 175.000
42.74000 175.000
42.95000 162.000
43.16000 176.000
43.37000 176.000
43.58000 138.000
43.79000 145.000
44.00000 148.000
44.21000 157.000
44.42000 148.000
44.63000 165.000
44.84000 170.000
45.05000 172.000
45.26000 139.000
45.47000 188.000
45.68000 137.000
45.89000 138.000
46.10000 154.000
46.31000 140.000
46.52000 132.000
46.73000 136.000
46.94000 132.000
47.15000 161.000
47.36000 127.000
47.57000 147.000
47.78000 133.000
47.99000 148.000
48.20000 131.000
48.41000 150.000
48.62000 122.000
48.83000 119.000
49.04000 148.000
49.25000 132.000
49.46000 149.000
49.67000 120.000
49.88000 141.000
50.09000 154.000
50.30000 124.000
50.51000 146.000
50.72000 133.000
50.93000 109.000
51.14000 123.000
51.35000 136.000
51.56000 126.000
51.77000 122.000
51.98000 134.000
52.19000 143.000
52.40000 143.000
52.61000 134.000
52.82000 141.000
53.03000 138.000
53.24000 140.000
53.45000 132.000
53.66000 122.000
53.87000 136.000
54.08000 161.000
54.29000 148.000
54.50000 133.000
54.71000 126.000
54.92000 132.000
55.13000 136.000
55.34000 116.000
55.55000 133.000
55.76000 145.000
55.97000 130.000
56.18000 114.000
56.39000 125.000
56.60000 129.000
56.81000 129.000
57.02000 128.000
57.23000 120.000
57.44000 143.000
57.65000 139.000
57.86000 136.000
58.07000 143.000
58.28000 138.000
58.49000 146.000
58.70000 128.000
58.91000 111.000
59.12000 102.000
59.33000 108.000
59.54000 116.000
59.75000 112.000
59.96000 114.000
60.17000 116.000
60.38000 98.000
60.59000 119.000
60.80000 105.000
61.01000 114.000
61.22000 100.000
61.43000 108.000
61.64000 104.000
61.85000 94.000
61.98500 107.000

File: HSC077_nPC.xy
2.00000 2.000
2.21000 1.000
2.42000 1.000
2.63000 0.000
2.84000 2.000
3.05000 6.000
3.26000 128.000
3.47000 340.000
3.68000 319.000
3.89000 302.000
4.10000 304.000
4.31000 286.000
4.52000 231.000
4.73000 239.000
4.94000 256.000
5.15000 261.000
5.36000 246.000
5.57000 262.000
5.78000 271.000
5.99000 325.000
6.20000 614.000
6.41000 291.000
6.62000 248.000
6.83000 221.000
7.04000 244.000
7.25000 262.000
7.46000 250.000
7.67000 243.000
7.88000 237.000
8.09000 239.000
8.30000 286.000
8.51000 259.000
8.72000 279.000
8.93000 313.000
9.14000 255.000
9.35000 262.000
9.56000 288.000
9.77000 312.000
9.98000 305.000
10.19000 439.000
10.40000 766.000
10.61000 702.000
10.82000 577.000
11.03000 1093.000
11.24000 350.000
11.45000 281.000
11.66000 278.000
11.87000 274.000
12.08000 266.000
12.29000 264.000
12.50000 321.000
12.71000 246.000
12.92000 235.000
13.13000 235.000
13.34000 267.000
13.55000 249.000
13.76000 262.000
13.97000 246.000
14.18000 273.000
14.39000 253.000
14.60000 252.000
14.81000 245.000
15.02000 331.000
15.23000 264.000
15.44000 245.000
15.65000 297.000
15.86000 263.000
16.07000 288.000
16.28000 262.000
16.49000 278.000
16.70000 276.000
16.91000 279.000
17.12000 309.000
17.33000 337.000
17.54000 404.000
17.75000 364.000
17.96000 331.000
18.17000 299.000
18.38000 273.000
18.59000 334.000
18.80000 439.000
19.01000 383.000
19.22000 533.000
19.43000 298.000
19.64000 283.000
19.85000 309.000
20.06000 302.000
20.27000 285.000
20.48000 297.000
20.69000 308.000
20.90000 330.000
21.11000 361.000
21.32000 316.000
21.53000 255.000
21.74000 281.000
21.95000 277.000
22.16000 296.000
22.37000 274.000
22.58000 268.000
22.79000 299.000
23.00000 265.000
23.21000 297.000
23.42000 305.000
23.63000 304.000
23.84000 299.000
24.05000 318.000
24.26000 292.000
24.47000 417.000
24.68000 364.000
24.89000 377.000
25.10000 499.000
25.31000 485.000
25.52000 739.000
25.73000 533.000
25.94000 445.000
26.15000 431.000
26.36000 395.000
26.57000 688.000
26.78000 390.000
26.99000 359.000
27.20000 397.000
27.41000 441.000
27.62000 854.000
27.83000 811.000
28.04000 1515.000
28.25000 891.000
28.46000 447.000
28.67000 384.000
28.88000 321.000
29.09000 307.000
29.30000 291.000
29.51000 303.000
29.72000 299.000
29.93000 303.000
30.14000 324.000
30.35000 344.000
30.56000 317.000
30.77000 234.000
30.98000 258.000
31.19000 243.000
31.40000 242.000
31.61000 282.000
31.82000 256.000
32.03000 265.000
32.24000 230.000
32.45000 228.000
32.66000 259.000
32.87000 207.000
33.08000 233.000
33.29000 241.000
33.50000 232.000
33.71000 300.000
33.92000 280.000
34.13000 225.000
34.34000 229.000
34.55000 198.000
34.76000 186.000
34.97000 182.000
35.18000 186.000
35.39000 218.000
35.60000 194.000
35.81000 294.000
36.02000 189.000
36.23000 190.000
36.44000 172.000
36.65000 175.000
36.86000 158.000
37.07000 177.000
37.28000 163.000
37.49000 184.000
37.70000 176.000
37.91000 180.000
38.12000 155.000
38.33000 167.000
38.54000 170.000
38.75000 206.000
38.96000 201.000
39.17000 184.000
39.38000 205.000
39.59000 170.000
39.80000 150.000
40.01000 147.000
40.22000 174.000
40.43000 155.000
40.64000 175.000
40.85000 185.000
41.06000 140.000
41.27000 153.000
41.48000 149.000
41.69000 151.000
41.90000 134.000
42.11000 153.000
42.32000 168.000
42.53000 169.000
42.74000 166.000
42.95000 169.000
43.16000 167.000
43.37000 153.000
43.58000 126.000
43.79000 139.000
44.00000 140.000
44.21000 141.000
44.42000 144.000
44.63000 151.000
44.84000 171.000
45.05000 148.000
45.26000 135.000
45.47000 158.000
45.68000 127.000
45.89000 129.000
46.10000 121.000
46.31000 147.000
46.52000 130.000
46.73000 135.000
46.94000 134.000
47.15000 136.000
47.36000 126.000
47.57000 153.000
47.78000 139.000
47.99000 119.000
48.20000 127.000
48.41000 132.000
48.62000 136.000
48.83000 123.000
49.04000 133.000
49.25000 131.000
49.46000 111.000
49.67000 120.000
49.88000 118.000
50.09000 137.000
50.30000 126.000
50.51000 128.000
50.72000 135.000
50.93000 117.000
51.14000 118.000
51.35000 121.000
51.56000 136.000
51.77000 119.000
51.98000 113.000
52.19000 120.000
52.40000 156.000
52.61000 119.000
52.82000 132.000
53.03000 126.000
53.24000 131.000
53.45000 137.000
53.66000 129.000
53.87000 139.000
54.08000 159.000
54.29000 134.000
54.50000 133.000
54.71000 129.000
54.92000 115.000
55.13000 135.000
55.34000 110.000
55.55000 116.000
55.76000 126.000
55.97000 112.000
56.18000 116.000
56.39000 102.000
56.60000 119.000
56.81000 125.000
57.02000 114.000
57.23000 121.000
57.44000 131.000
57.65000 124.000
57.86000 127.000
58.07000 133.000
58.28000 121.000
58.49000 134.000
58.70000 115.000
58.91000 102.000
59.12000 111.000
59.33000 105.000
59.54000 107.000
59.75000 85.000
59.96000 98.000
60.17000 116.000
60.38000 107.000
60.59000 120.000
60.80000 106.000
61.01000 98.000
61.22000 87.000
61.43000 99.000
61.64000 100.000
61.85000 95.000
61.98500 111.000