Folder: phd-thesis/ISoD/xrd_data (part 12)

File: HSC071.xy
2.00000 1.000
2.21000 4.000
2.42000 1.000
2.63000 0.000
2.84000 3.000
3.05000 121.000
3.26000 312.000
3.47000 323.000
3.68000 316.000
3.89000 293.000
4.10000 316.000
4.31000 290.000
4.52000 317.000
4.73000 292.000
4.94000 326.000
5.15000 350.000
5.36000 312.000
5.57000 315.000
5.78000 317.000
5.99000 326.000
6.20000 359.000
6.41000 346.000
6.62000 356.000
6.83000 336.000
7.04000 365.000
7.25000 340.000
7.46000 362.000
7.67000 351.000
7.88000 374.000
8.09000 401.000
8.30000 379.000
8.51000 384.000
8.72000 395.000
8.93000 389.000
9.14000 363.000
9.35000 381.000
9.56000 376.000
9.77000 391.000
9.98000 386.000
10.19000 402.000
10.40000 457.000
10.61000 475.000
10.82000 472.000
11.03000 562.000
11.24000 456.000
11.45000 434.000
11.66000 471.000
11.87000 522.000
12.08000 608.000
12.29000 510.000
12.50000 419.000
12.71000 434.000
12.92000 381.000
13.13000 380.000
13.34000 391.000
13.55000 391.000
13.76000 378.000
13.97000 418.000
14.18000 392.000
14.39000 373.000
14.60000 398.000
14.81000 377.000
15.02000 405.000
15.23000 405.000
15.44000 390.000
15.65000 400.000
15.86000 355.000
16.07000 408.000
16.28000 387.000
16.49000 389.000
16.70000 385.000
16.91000 407.000
17.12000 412.000
17.33000 424.000
17.54000 426.000
17.75000 421.000
17.96000 402.000
18.17000 405.000
18.38000 407.000
18.59000 419.000
18.80000 460.000
19.01000 406.000
19.22000 429.000
19.43000 449.000
19.64000 423.000
19.85000 435.000
20.06000 439.000
20.27000 437.000
20.48000 467.000
20.69000 472.000
20.90000 562.000
21.11000 552.000
21.32000 508.000
21.53000 477.000
21.74000 453.000
21.95000 414.000
22.16000 452.000
22.37000 463.000
22.58000 418.000
22.79000 481.000
23.00000 417.000
23.21000 441.000
23.42000 420.000
23.63000 475.000
23.84000 462.000
24.05000 482.000
24.26000 503.000
24.47000 502.000
24.68000 490.000
24.89000 553.000
25.10000 527.000
25.31000 531.000
25.52000 519.000
25.73000 551.000
25.94000 579.000
26.15000 686.000
26.36000 910.000
26.57000 764.000
26.78000 668.000
26.99000 618.000
27.20000 607.000
27.41000 571.000
27.62000 595.000
27.83000 656.000
28.04000 781.000
28.25000 623.000
28.46000 486.000
28.67000 507.000
28.88000 553.000
29.09000 655.000
29.30000 579.000
29.51000 475.000
29.72000 426.000
29.93000 413.000
30.14000 379.000
30.35000 368.000
30.56000 328.000
30.77000 366.000
30.98000 345.000
31.19000 345.000
31.40000 320.000
31.61000 328.000
31.82000 343.000
32.03000 340.000
32.24000 411.000
32.45000 369.000
32.66000 363.000
32.87000 296.000
33.08000 294.000
33.29000 303.000
33.50000 317.000
33.71000 294.000
33.92000 279.000
34.13000 268.000
34.34000 268.000
34.55000 275.000
34.76000 246.000
34.97000 244.000
35.18000 263.000
35.39000 238.000
35.60000 237.000
35.81000 256.000
36.02000 227.000
36.23000 234.000
36.44000 228.000
36.65000 240.000
36.86000 221.000
37.07000 223.000
37.28000 199.000
37.49000 216.000
37.70000 196.000
37.91000 206.000
38.12000 204.000
38.33000 215.000
38.54000 197.000
38.75000 200.000
38.96000 193.000
39.17000 207.000
39.38000 221.000
39.59000 183.000
39.80000 193.000
40.01000 192.000
40.22000 181.000
40.43000 195.000
40.64000 192.000
40.85000 191.000
41.06000 191.000
41.27000 190.000
41.48000 210.000
41.69000 201.000
41.90000 205.000
42.11000 189.000
42.32000 199.000
42.53000 198.000
42.74000 224.000
42.95000 205.000
43.16000 211.000
43.37000 189.000
43.58000 187.000
43.79000 168.000
44.00000 185.000
44.21000 177.000
44.42000 170.000
44.63000 200.000
44.84000 226.000
45.05000 189.000
45.26000 204.000
45.47000 206.000
45.68000 194.000
45.89000 189.000
46.10000 197.000
46.31000 176.000
46.52000 173.000
46.73000 199.000
46.94000 163.000
47.15000 165.000
47.36000 177.000
47.57000 162.000
47.78000 164.000
47.99000 182.000
48.20000 153.000
48.41000 173.000
48.62000 159.000
48.83000 165.000
49.04000 166.000
49.25000 156.000
49.46000 161.000
49.67000 159.000
49.88000 164.000
50.09000 150.000
50.30000 162.000
50.51000 160.000
50.72000 162.000
50.93000 196.000
51.14000 181.000
51.35000 148.000
51.56000 168.000
51.77000 151.000
51.98000 155.000
52.19000 151.000
52.40000 178.000
52.61000 144.000
52.82000 152.000
53.03000 134.000
53.24000 171.000
53.45000 154.000
53.66000 145.000
53.87000 148.000
54.08000 164.000
54.29000 164.000
54.50000 173.000
54.71000 155.000
54.92000 150.000
55.13000 148.000
55.34000 162.000
55.55000 134.000
55.76000 126.000
55.97000 132.000
56.18000 155.000
56.39000 133.000
56.60000 133.000
56.81000 129.000
57.02000 130.000
57.23000 151.000
57.44000 141.000
57.65000 143.000
57.86000 156.000
58.07000 135.000
58.28000 139.000
58.49000 125.000
58.70000 138.000
58.91000 130.000
59.12000 130.000
59.33000 131.000
59.54000 140.000
59.75000 132.000
59.96000 121.000
60.17000 130.000
60.38000 135.000
60.59000 141.000
60.80000 137.000
61.01000 123.000
61.22000 109.000
61.43000 137.000
61.64000 121.000
61.85000 111.000
61.98500 135.000

File: HSC072.xy
2.00000 7.000
2.21000 3.000
2.42000 3.000
2.63000 6.000
2.84000 3.000
3.05000 4.000
3.26000 129.000
3.47000 270.000
3.68000 303.000
3.89000 262.000
4.10000 288.000
4.31000 283.000
4.52000 279.000
4.73000 294.000
4.94000 298.000
5.15000 298.000
5.36000 313.000
5.57000 294.000
5.78000 328.000
5.99000 342.000
6.20000 336.000
6.41000 334.000
6.62000 347.000
6.83000 353.000
7.04000 378.000
7.25000 343.000
7.46000 382.000
7.67000 348.000
7.88000 371.000
8.09000 378.000
8.30000 394.000
8.51000 391.000
8.72000 385.000
8.93000 386.000
9.14000 378.000
9.35000 364.000
9.56000 391.000
9.77000 393.000
9.98000 396.000
10.19000 403.000
10.40000 379.000
10.61000 402.000
10.82000 401.000
11.03000 406.000
11.24000 396.000
11.45000 397.000
11.66000 401.000
11.87000 406.000
12.08000 377.000
12.29000 432.000
12.50000 399.000
12.71000 387.000
12.92000 438.000
13.13000 389.000
13.34000 407.000
13.55000 385.000
13.76000 417.000
13.97000 381.000
14.18000 413.000
14.39000 405.000
14.60000 383.000
14.81000 361.000
15.02000 421.000
15.23000 396.000
15.44000 414.000
15.65000 386.000
15.86000 418.000
16.07000 423.000
16.28000 414.000
16.49000 424.000
16.70000 418.000
16.91000 414.000
17.12000 388.000
17.33000 411.000
17.54000 393.000
17.75000 430.000
17.96000 392.000
18.17000 412.000
18.38000 430.000
18.59000 454.000
18.80000 408.000
19.01000 431.000
19.22000 431.000
19.43000 437.000
19.64000 431.000
19.85000 413.000
20.06000 429.000
20.27000 416.000
20.48000 426.000
20.69000 448.000
20.90000 413.000
21.11000 432.000
21.32000 424.000
21.53000 410.000
21.74000 459.000
21.95000 419.000
22.16000 413.000
22.37000 411.000
22.58000 435.000
22.79000 441.000
23.00000 428.000
23.21000 409.000
23.42000 430.000
23.63000 441.000
23.84000 384.000
24.05000 400.000
24.26000 456.000
24.47000 383.000
24.68000 434.000
24.89000 423.000
25.10000 409.000
25.31000 425.000
25.52000 465.000
25.73000 470.000
25.94000 434.000
26.15000 437.000
26.36000 419.000
26.57000 399.000
26.78000 418.000
26.99000 426.000
27.20000 464.000
27.41000 465.000
27.62000 473.000
27.83000 451.000
28.04000 428.000
28.25000 424.000
28.46000 394.000
28.67000 383.000
28.88000 358.000
29.09000 411.000
29.30000 358.000
29.51000 357.000
29.72000 339.000
29.93000 299.000
30.14000 345.000
30.35000 311.000
30.56000 332.000
30.77000 319.000
30.98000 314.000
31.19000 311.000
31.40000 299.000
31.61000 313.000
31.82000 289.000
32.03000 292.000
32.24000 293.000
32.45000 286.000
32.66000 283.000
32.87000 280.000
33.08000 259.000
33.29000 263.000
33.50000 249.000
33.71000 219.000
33.92000 243.000
34.13000 240.000
34.34000 250.000
34.55000 229.000
34.76000 227.000
34.97000 228.000
35.18000 223.000
35.39000 219.000
35.60000 220.000
35.81000 234.000
36.02000 196.000
36.23000 221.000
36.44000 208.000
36.65000 190.000
36.86000 193.000
37.07000 192.000
37.28000 179.000
37.49000 192.000
37.70000 188.000
37.91000 184.000
38.12000 180.000
38.33000 170.000
38.54000 198.000
38.75000 177.000
38.96000 159.000
39.17000 201.000
39.38000 166.000
39.59000 174.000
39.80000 141.000
40.01000 186.000
40.22000 168.000
40.43000 182.000
40.64000 153.000
40.85000 176.000
41.06000 160.000
41.27000 163.000
41.48000 147.000
41.69000 162.000
41.90000 135.000
42.11000 175.000
42.32000 167.000
42.53000 138.000
42.74000 162.000
42.95000 146.000
43.16000 168.000
43.37000 160.000
43.58000 171.000
43.79000 138.000
44.00000 151.000
44.21000 143.000
44.42000 151.000
44.63000 162.000
44.84000 154.000
45.05000 159.000
45.26000 150.000
45.47000 154.000
45.68000 163.000
45.89000 158.000
46.10000 154.000
46.31000 141.000
46.52000 124.000
46.73000 155.000
46.94000 137.000
47.15000 137.000
47.36000 142.000
47.57000 176.000
47.78000 140.000
47.99000 132.000
48.20000 132.000
48.41000 135.000
48.62000 129.000
48.83000 120.000
49.04000 111.000
49.25000 122.000
49.46000 124.000
49.67000 116.000
49.88000 130.000
50.09000 122.000
50.30000 117.000
50.51000 140.000
50.72000 130.000
50.93000 117.000
51.14000 115.000
51.35000 129.000
51.56000 122.000
51.77000 115.000
51.98000 119.000
52.19000 142.000
52.40000 122.000
52.61000 125.000
52.82000 127.000
53.03000 117.000
53.24000 115.000
53.45000 117.000
53.66000 114.000
53.87000 118.000
54.08000 110.000
54.29000 118.000
54.50000 112.000
54.71000 118.000
54.92000 130.000
55.13000 116.000
55.34000 125.000
55.55000 114.000
55.76000 126.000
55.97000 129.000
56.18000 139.000
56.39000 117.000
56.60000 130.000
56.81000 117.000
57.02000 113.000
57.23000 117.000
57.44000 118.000
57.65000 128.000
57.86000 100.000
58.07000 113.000
58.28000 110.000
58.49000 127.000
58.70000 116.000
58.91000 114.000
59.12000 93.000
59.33000 106.000
59.54000 113.000
59.75000 105.000
59.96000 119.000
60.17000 103.000
60.38000 110.000
60.59000 119.000
60.80000 116.000
61.01000 102.000
61.22000 97.000
61.43000 107.000
61.64000 114.000
61.85000 106.000
61.98500 102.000

File: HSC072_range_1.xy
2.00000 2.000
2.21000 2.000
2.42000 3.000
2.63000 2.000
2.84000 3.000
3.05000 2.000
3.26000 151.000
3.47000 248.000
3.68000 299.000
3.89000 278.000
4.10000 262.000
4.31000 273.000
4.52000 258.000
4.73000 275.000
4.94000 269.000
5.15000 306.000
5.36000 300.000
5.57000 322.000
5.78000 273.000
5.99000 337.000
6.20000 317.000
6.41000 302.000
6.62000 358.000
6.83000 325.000
7.04000 336.000
7.25000 359.000
7.46000 323.000
7.67000 355.000
7.88000 338.000
8.09000 361.000
8.30000 359.000
8.51000 338.000
8.72000 376.000
8.93000 378.000
9.14000 339.000
9.35000 350.000
9.56000 359.000
9.77000 362.000
9.98000 348.000
10.19000 384.000
10.40000 387.000
10.61000 381.000
10.82000 382.000
11.03000 353.000
11.24000 367.000
11.45000 356.000
11.66000 356.000
11.87000 374.000
12.08000 361.000
12.29000 383.000
12.50000 381.000
12.71000 382.000
12.92000 371.000
13.13000 356.000
13.34000 399.000
13.55000 381.000
13.76000 370.000
13.97000 373.000
14.18000 369.000
14.39000 361.000
14.60000 367.000
14.81000 388.000
15.02000 384.000
15.23000 373.000
15.44000 382.000
15.65000 398.000
15.86000 379.000
16.07000 372.000
16.28000 390.000
16.49000 344.000
16.70000 344.000
16.91000 355.000
17.12000 398.000
17.33000 371.000
17.54000 415.000
17.75000 385.000
17.96000 395.000
18.17000 400.000
18.38000 389.000
18.59000 421.000
18.80000 390.000
19.01000 425.000
19.22000 407.000
19.43000 411.000
19.64000 384.000
19.85000 393.000
20.06000 414.000
20.27000 399.000
20.48000 413.000
20.69000 426.000
20.90000 410.000
21.11000 399.000
21.32000 410.000
21.53000 435.000
21.74000 419.000
21.95000 401.000
22.16000 437.000
22.37000 403.000
22.58000 412.000
22.79000 414.000
23.00000 403.000
23.21000 404.000
23.42000 407.000
23.63000 398.000
23.84000 383.000
24.05000 396.000
24.26000 403.000
24.47000 403.000
24.68000 414.000
24.89000 448.000
25.10000 387.000
25.31000 420.000
25.52000 413.000
25.73000 416.000
25.94000 451.000
26.15000 404.000
26.36000 412.000
26.57000 421.000
26.78000 420.000
26.99000 428.000
27.20000 414.000
27.41000 465.000
27.62000 469.000
27.83000 452.000
28.04000 452.000
28.25000 444.000
28.46000 400.000
28.67000 401.000
28.88000 337.000
29.09000 376.000
29.30000 356.000
29.51000 353.000
29.72000 342.000
29.93000 339.000
30.14000 363.000
30.35000 304.000
30.56000 290.000
30.77000 315.000
30.98000 295.000
31.19000 309.000
31.40000 309.000
31.61000 304.000
31.82000 281.000
32.03000 278.000
32.24000 262.000
32.45000 262.000
32.66000 257.000
32.87000 263.000
33.08000 273.000
33.29000 242.000
33.50000 244.000
33.71000 246.000
33.92000 225.000
34.13000 239.000
34.34000 250.000
34.55000 223.000
34.76000 214.000
34.97000 216.000
35.18000 217.000
35.39000 208.000
35.60000 224.000
35.81000 223.000
36.02000 197.000
36.23000 211.000
36.44000 194.000
36.65000 194.000
36.86000 221.000
37.07000 216.000
37.28000 180.000
37.49000 179.000
37.70000 161.000
37.91000 167.000
38.12000 172.000
38.33000 170.000
38.54000 177.000
38.75000 159.000
38.96000 174.000
39.17000 175.000
39.38000 178.000
39.59000 174.000
39.80000 172.000
40.01000 157.000
40.22000 167.000
40.43000 161.000
40.64000 159.000
40.85000 162.000
41.06000 167.000
41.27000 146.000
41.48000 167.000
41.69000 149.000
41.90000 158.000
42.11000 162.000
42.32000 161.000
42.53000 157.000
42.74000 163.000
42.95000 165.000
43.16000 167.000
43.37000 161.000
43.58000 144.000
43.79000 151.000
44.00000 137.000
44.21000 141.000
44.42000 141.000
44.63000 137.000
44.84000 140.000
45.05000 155.000
45.26000 152.000
45.47000 130.000
45.68000 168.000
45.89000 137.000
46.10000 139.000
46.31000 140.000
46.52000 150.000
46.73000 139.000
46.94000 142.000
47.15000 157.000
47.36000 123.000
47.57000 145.000
47.78000 131.000
47.99000 120.000
48.20000 133.000
48.41000 133.000
48.62000 135.000
48.83000 122.000
49.04000 122.000
49.25000 109.000
49.46000 133.000
49.67000 134.000
49.88000 125.000
50.09000 134.000
50.30000 126.000
50.51000 121.000
50.72000 124.000
50.93000 126.000
51.14000 113.000
51.35000 122.000
51.56000 146.000
51.77000 131.000
51.98000 112.000
52.19000 132.000
52.40000 123.000
52.61000 130.000
52.82000 119.000
53.03000 117.000
53.24000 120.000
53.45000 102.000
53.66000 121.000
53.87000 111.000
54.08000 117.000
54.29000 106.000
54.50000 111.000
54.71000 108.000
54.92000 100.000
55.13000 105.000
55.34000 113.000
55.55000 116.000
55.76000 127.000
55.97000 109.000
56.18000 118.000
56.39000 104.000
56.60000 105.000
56.81000 110.000
57.02000 114.000
57.23000 115.000
57.44000 116.000
57.65000 111.000
57.86000 106.000
58.07000 128.000
58.28000 115.000
58.49000 122.000
58.70000 129.000
58.91000 90.000
59.12000 95.000
59.33000 103.000
59.54000 105.000
59.75000 101.000
59.96000 110.000
60.17000 116.000
60.38000 98.000
60.59000 105.000
60.80000 96.000
61.01000 124.000
61.22000 109.000
61.43000 102.000
61.64000 86.000
61.85000 99.000
61.98500 109.000

File: HSC072_ranges_combined.xy
2.0 9.0
2.21 5.0
2.42 6.0
2.63 8.0
2.84 6.0
3.05 6.0
3.26 280.0
3.47 518.0
3.68 602.0
3.89 540.0
4.1 550.0
4.31 556.0
4.52 537.0
4.73 569.0
4.94 567.0
5.15 604.0
5.36 613.0
5.57 616.0
5.78 601.0
5.99 679.0
6.2 653.0
6.41 636.0
6.62 705.0
6.83 678.0
7.04 714.0
7.25 702.0
7.46 705.0
7.67 703.0
7.88 709.0
8.09 739.0
8.3 753.0
8.51 729.0
8.72 761.0
8.93 764.0
9.14 717.0
9.35 714.0
9.56 750.0
9.77 755.0
9.98 744.0
10.19 787.0
10.4 766.0
10.61 783.0
10.82 783.0
11.03 759.0
11.24 763.0
11.45 753.0
11.66 757.0
11.87 780.0
12.08 738.0
12.29 815.0
12.5 780.0
12.71 769.0
12.92 809.0
13.13 745.0
13.34 806.0
13.55 766.0
13.76 787.0
13.97 754.0
14.18 782.0
14.39 766.0
14.6 750.0
14.81 749.0
15.02 805.0
15.23 769.0
15.44 796.0
15.65 784.0
15.86 797.0
16.07 795.0
16.28 804.0
16.49 768.0
16.7 762.0
16.91 769.0
17.12 786.0
17.33 782.0
17.54 808.0
17.75 815.0
17.96 787.0
18.17 812.0
18.38 819.0
18.59 875.0
18.8 798.0
19.01 856.0
19.22 838.0
19.43 848.0
19.64 815.0
19.85 806.0
20.06 843.0
20.27 815.0
20.48 839.0
20.69 874.0
20.9 823.0
21.11 831.0
21.32 834.0
21.53 845.0
21.74 878.0
21.95 820.0
22.16 850.0
22.37 814.0
22.58 847.0
22.79 855.0
23.0 831.0
23.21 813.0
23.42 837.0
23.63 839.0
23.84 767.0
24.05 796.0
24.26 859.0
24.47 786.0
24.68 848.0
24.89 871.0
25.1 796.0
25.31 845.0
25.52 878.0
25.73 886.0
25.94 885.0
26.15 841.0
26.36 831.0
26.57 820.0
26.78 838.0
26.99 854.0
27.2 878.0
27.41 930.0
27.62 942.0
27.83 903.0
28.04 880.0
28.25 868.0
28.46 794.0
28.67 784.0
28.88 695.0
29.09 787.0
29.3 714.0
29.51 710.0
29.72 681.0
29.93 638.0
30.14 708.0
30.35 615.0
30.56 622.0
30.77 634.0
30.98 609.0
31.19 620.0
31.4 608.0
31.61 617.0
31.82 570.0
32.03 570.0
32.24 555.0
32.45 548.0
32.66 540.0
32.87 543.0
33.08 532.0
33.29 505.0
33.5 493.0
33.71 465.0
33.92 468.0
34.13 479.0
34.34 500.0
34.55 452.0
34.76 441.0
34.97 444.0
35.18 440.0
35.39 427.0
35.6 444.0
35.81 457.0
36.02 393.0
36.23 432.0
36.44 402.0
36.65 384.0
36.86 414.0
37.07 408.0
37.28 359.0
37.49 371.0
37.7 349.0
37.91 351.0
38.12 352.0
38.33 340.0
38.54 375.0
38.75 336.0
38.96 333.0
39.17 376.0
39.38 344.0
39.59 348.0
39.8 313.0
40.01 343.0
40.22 335.0
40.43 343.0
40.64 312.0
40.85 338.0
41.06 327.0
41.27 309.0
41.48 314.0
41.69 311.0
41.9 293.0
42.11 337.0
42.32 328.0
42.53 295.0
42.74 325.0
42.95 311.0
43.16 335.0
43.37 321.0
43.58 315.0
43.79 289.0
44.0 288.0
44.21 284.0
44.42 292.0
44.63 299.0
44.84 294.0
45.05 314.0
45.26 302.0
45.47 284.0
45.68 331.0
45.89 295.0
46.1 293.0
46.31 281.0
46.52 274.0
46.73 294.0
46.94 279.0
47.15 294.0
47.36 265.0
47.57 321.0
47.78 271.0
47.99 252.0
48.2 265.0
48.41 268.0
48.62 264.0
48.83 242.0
49.04 233.0
49.25 231.0
49.46 257.0
49.67 250.0
49.88 255.0
50.09 256.0
50.3 243.0
50.51 261.0
50.72 254.0
50.93 243.0
51.14 228.0
51.35 251.0
51.56 268.0
51.77 246.0
51.98 231.0
52.19 274.0
52.4 245.0
52.61 255.0
52.82 246.0
53.03 234.0
53.24 235.0
53.45 219.0
53.66 235.0
53.87 229.0
54.08 227.0
54.29 224.0
54.5 223.0
54.71 226.0
54.92 230.0
55.13 221.0
55.34 238.0
55.55 230.0
55.76 253.0
55.97 238.0
56.18 257.0
56.39 221.0
56.6 235.0
56.81 227.0
57.02 227.0
57.23 232.0
57.44 234.0
57.65 239.0
57.86 206.0
58.07 241.0
58.28 225.0
58.49 249.0
58.7 245.0
58.91 204.0
59.12 188.0
59.33 209.0
59.54 218.0
59.75 206.0
59.96 229.0
60.17 219.0
60.38 208.0
60.59 224.0
60.8 212.0
61.01 226.0
61.22 206.0
61.43 209.0
61.64 200.0
61.85 205.0
61.985 211.0

File: HSC073.xy
2.00000 3.000
2.21000 2.000
2.42000 5.000
2.63000 1.000
2.84000 4.000
3.05000 7.000
3.26000 56.000
3.47000 226.000
3.68000 209.000
3.89000 229.000
4.10000 282.000
4.31000 254.000
4.52000 268.000
4.73000 285.000
4.94000 305.000
5.15000 338.000
5.36000 317.000
5.57000 345.000
5.78000 333.000
5.99000 364.000
6.20000 350.000
6.41000 367.000
6.62000 410.000
6.83000 409.000
7.04000 399.000
7.25000 376.000
7.46000 379.000
7.67000 377.000
7.88000 405.000
8.09000 403.000
8.30000 393.000
8.51000 426.000
8.72000 399.000
8.93000 425.000
9.14000 420.000
9.35000 407.000
9.56000 416.000
9.77000 404.000
9.98000 405.000
10.19000 427.000
10.40000 438.000
10.61000 440.000
10.82000 412.000
11.03000 439.000
11.24000 439.000
11.45000 453.000
11.66000 441.000
11.87000 445.000
12.08000 465.000
12.29000 427.000
12.50000 436.000
12.71000 446.000
12.92000 462.000
13.13000 424.000
13.34000 448.000
13.55000 450.000
13.76000 466.000
13.97000 469.000
14.18000 481.000
14.39000 521.000
14.60000 464.000
14.81000 482.000
15.02000 477.000
15.23000 488.000
15.44000 456.000
15.65000 505.000
15.86000 457.000
16.07000 496.000
16.28000 470.000
16.49000 495.000
16.70000 482.000
16.91000 506.000
17.12000 496.000
17.33000 483.000
17.54000 511.000
17.75000 520.000
17.96000 491.000
18.17000 513.000
18.38000 487.000
18.59000 529.000
18.80000 540.000
19.01000 514.000
19.22000 492.000
19.43000 515.000
19.64000 511.000
19.85000 479.000
20.06000 546.000
20.27000 535.000
20.48000 527.000
20.69000 510.000
20.90000 544.000
21.11000 524.000
21.32000 536.000
21.53000 496.000
21.74000 518.000
21.95000 568.000
22.16000 536.000
22.37000 553.000
22.58000 530.000
22.79000 519.000
23.00000 525.000
23.21000 532.000
23.42000 515.000
23.63000 525.000
23.84000 534.000
24.05000 495.000
24.26000 498.000
24.47000 475.000
24.68000 500.000
24.89000 460.000
25.10000 503.000
25.31000 524.000
25.52000 494.000
25.73000 496.000
25.94000 533.000
26.15000 467.000
26.36000 469.000
26.57000 466.000
26.78000 451.000
26.99000 436.000
27.20000 447.000
27.41000 414.000
27.62000 438.000
27.83000 379.000
28.04000 399.000
28.25000 415.000
28.46000 391.000
28.67000 418.000
28.88000 400.000
29.09000 422.000
29.30000 410.000
29.51000 398.000
29.72000 398.000
29.93000 387.000
30.14000 370.000
30.35000 358.000
30.56000 380.000
30.77000 369.000
30.98000 347.000
31.19000 357.000
31.40000 340.000
31.61000 346.000
31.82000 340.000
32.03000 324.000
32.24000 339.000
32.45000 291.000
32.66000 291.000
32.87000 290.000
33.08000 274.000
33.29000 270.000
33.50000 283.000
33.71000 287.000
33.92000 278.000
34.13000 274.000
34.34000 282.000
34.55000 258.000
34.76000 270.000
34.97000 247.000
35.18000 244.000
35.39000 235.000
35.60000 265.000
35.81000 243.000
36.02000 242.000
36.23000 229.000
36.44000 223.000
36.65000 236.000
36.86000 220.000
37.07000 223.000
37.28000 224.000
37.49000 193.000
37.70000 218.000
37.91000 191.000
38.12000 210.000
38.33000 179.000
38.54000 214.000
38.75000 202.000
38.96000 211.000
39.17000 202.000
39.38000 198.000
39.59000 190.000
39.80000 188.000
40.01000 187.000
40.22000 215.000
40.43000 203.000
40.64000 184.000
40.85000 185.000
41.06000 188.000
41.27000 177.000
41.48000 183.000
41.69000 208.000
41.90000 189.000
42.11000 175.000
42.32000 193.000
42.53000 166.000
42.74000 181.000
42.95000 178.000
43.16000 167.000
43.37000 178.000
43.58000 186.000
43.79000 185.000
44.00000 169.000
44.21000 188.000
44.42000 178.000
44.63000 173.000
44.84000 160.000
45.05000 160.000
45.26000 180.000
45.47000 181.000
45.68000 170.000
45.89000 184.000
46.10000 170.000
46.31000 163.000
46.52000 165.000
46.73000 169.000
46.94000 172.000
47.15000 150.000
47.36000 143.000
47.57000 164.000
47.78000 170.000
47.99000 153.000
48.20000 149.000
48.41000 162.000
48.62000 153.000
48.83000 159.000
49.04000 150.000
49.25000 156.000
49.46000 147.000
49.67000 139.000
49.88000 153.000
50.09000 148.000
50.30000 140.000
50.51000 150.000
50.72000 149.000
50.93000 147.000
51.14000 140.000
51.35000 153.000
51.56000 153.000
51.77000 152.000
51.98000 144.000
52.19000 131.000
52.40000 139.000
52.61000 139.000
52.82000 143.000
53.03000 143.000
53.24000 134.000
53.45000 132.000
53.66000 131.000
53.87000 130.000
54.08000 129.000
54.29000 145.000
54.50000 121.000
54.71000 145.000
54.92000 124.000
55.13000 128.000
55.34000 145.000
55.55000 133.000
55.76000 123.000
55.97000 137.000
56.18000 124.000
56.39000 145.000
56.60000 137.000
56.81000 122.000
57.02000 126.000
57.23000 125.000
57.44000 130.000
57.65000 126.000
57.86000 117.000
58.07000 127.000
58.28000 123.000
58.49000 120.000
58.70000 136.000
58.91000 133.000
59.12000 124.000
59.33000 125.000
59.54000 116.000
59.75000 103.000
59.96000 136.000
60.17000 111.000
60.38000 144.000
60.59000 115.000
60.80000 126.000
61.01000 122.000
61.22000 117.000
61.43000 121.000
61.64000 124.000
61.85000 117.000
61.98500 126.000