Folder: phd-thesis/ISoD/xrd_data (part 10)

File: HSC055.xy
2.00000 11.000
2.21000 12.000
2.42000 11.000
2.63000 18.000
2.84000 15.000
3.05000 7.000
3.26000 17.000
3.47000 230.000
3.68000 336.000
3.89000 377.000
4.10000 406.000
4.31000 485.000
4.52000 487.000
4.73000 491.000
4.94000 556.000
5.15000 531.000
5.36000 568.000
5.57000 590.000
5.78000 622.000
5.99000 611.000
6.20000 691.000
6.41000 677.000
6.62000 700.000
6.83000 710.000
7.04000 682.000
7.25000 691.000
7.46000 726.000
7.67000 738.000
7.88000 709.000
8.09000 746.000
8.30000 768.000
8.51000 756.000
8.72000 795.000
8.93000 803.000
9.14000 777.000
9.35000 813.000
9.56000 814.000
9.77000 818.000
9.98000 790.000
10.19000 834.000
10.40000 839.000
10.61000 785.000
10.82000 817.000
11.03000 831.000
11.24000 874.000
11.45000 859.000
11.66000 892.000
11.87000 1026.000
12.08000 4327.000
12.29000 28353.000
12.50000 3096.000
12.71000 1073.000
12.92000 913.000
13.13000 994.000
13.34000 2430.000
13.55000 1452.000
13.76000 4081.000
13.97000 961.000
14.18000 849.000
14.39000 832.000
14.60000 846.000
14.81000 839.000
15.02000 855.000
15.23000 816.000
15.44000 828.000
15.65000 840.000
15.86000 893.000
16.07000 890.000
16.28000 1087.000
16.49000 2175.000
16.70000 1347.000
16.91000 1751.000
17.12000 919.000
17.33000 884.000
17.54000 904.000
17.75000 904.000
17.96000 1205.000
18.17000 1124.000
18.38000 1107.000
18.59000 988.000
18.80000 958.000
19.01000 924.000
19.22000 1182.000
19.43000 3487.000
19.64000 4760.000
19.85000 1047.000
20.06000 926.000
20.27000 912.000
20.48000 984.000
20.69000 919.000
20.90000 912.000
21.11000 913.000
21.32000 924.000
21.53000 1163.000
21.74000 2653.000
21.95000 2148.000
22.16000 1640.000
22.37000 1007.000
22.58000 936.000
22.79000 993.000
23.00000 943.000
23.21000 999.000
23.42000 973.000
23.63000 1013.000
23.84000 1142.000
24.05000 1042.000
24.26000 1204.000
24.47000 1054.000
24.68000 2462.000
24.89000 1648.000
25.10000 4795.000
25.31000 2621.000
25.52000 2033.000
25.73000 10250.000
25.94000 1930.000
26.15000 2785.000
26.36000 3186.000
26.57000 1391.000
26.78000 1381.000
26.99000 2961.000
27.20000 2610.000
27.41000 1609.000
27.62000 3521.000
27.83000 12154.000
28.04000 1496.000
28.25000 1135.000
28.46000 1256.000
28.67000 1071.000
28.88000 1045.000
29.09000 1014.000
29.30000 865.000
29.51000 942.000
29.72000 984.000
29.93000 1251.000
30.14000 3970.000
30.35000 1482.000
30.56000 1238.000
30.77000 2836.000
30.98000 1172.000
31.19000 1095.000
31.40000 818.000
31.61000 1374.000
31.82000 1038.000
32.03000 1019.000
32.24000 970.000
32.45000 848.000
32.66000 698.000
32.87000 683.000
33.08000 749.000
33.29000 875.000
33.50000 916.000
33.71000 1300.000
33.92000 972.000
34.13000 914.000
34.34000 723.000
34.55000 814.000
34.76000 831.000
34.97000 1216.000
35.18000 752.000
35.39000 672.000
35.60000 593.000
35.81000 774.000
36.02000 574.000
36.23000 532.000
36.44000 524.000
36.65000 536.000
36.86000 557.000
37.07000 977.000
37.28000 545.000
37.49000 486.000
37.70000 496.000
37.91000 570.000
38.12000 601.000
38.33000 887.000
38.54000 576.000
38.75000 474.000
38.96000 560.000
39.17000 607.000
39.38000 603.000
39.59000 627.000
39.80000 638.000
40.01000 636.000
40.22000 535.000
40.43000 612.000
40.64000 891.000
40.85000 681.000
41.06000 870.000
41.27000 1026.000
41.48000 535.000
41.69000 581.000
41.90000 703.000
42.11000 1100.000
42.32000 623.000
42.53000 606.000
42.74000 658.000
42.95000 496.000
43.16000 483.000
43.37000 478.000
43.58000 478.000
43.79000 557.000
44.00000 523.000
44.21000 895.000
44.42000 589.000
44.63000 759.000
44.84000 592.000
45.05000 725.000
45.26000 527.000
45.47000 497.000
45.68000 501.000
45.89000 476.000
46.10000 498.000
46.31000 637.000
46.52000 541.000
46.73000 638.000
46.94000 829.000
47.15000 741.000
47.36000 587.000
47.57000 641.000
47.78000 549.000
47.99000 473.000
48.20000 512.000
48.41000 570.000
48.62000 468.000
48.83000 451.000
49.04000 623.000
49.25000 463.000
49.46000 550.000
49.67000 932.000
49.88000 455.000
50.09000 502.000
50.30000 663.000
50.51000 821.000
50.72000 492.000
50.93000 436.000
51.14000 473.000
51.35000 560.000
51.56000 619.000
51.77000 642.000
51.98000 544.000
52.19000 531.000
52.40000 437.000
52.61000 425.000
52.82000 439.000
53.03000 533.000
53.24000 553.000
53.45000 794.000
53.66000 524.000
53.87000 496.000
54.08000 715.000
54.29000 455.000
54.50000 469.000
54.71000 527.000
54.92000 706.000
55.13000 942.000
55.34000 585.000
55.55000 477.000
55.76000 483.000
55.97000 434.000
56.18000 396.000
56.39000 393.000
56.60000 542.000
56.81000 556.000
57.02000 529.000
57.23000 595.000
57.44000 672.000
57.65000 459.000
57.86000 380.000
58.07000 444.000
58.28000 429.000
58.49000 387.000
58.70000 394.000
58.91000 409.000
59.12000 387.000
59.33000 380.000
59.54000 377.000
59.75000 415.000
59.96000 550.000
60.17000 493.000
60.38000 564.000
60.59000 418.000
60.80000 398.000
61.01000 426.000
61.22000 364.000
61.43000 347.000
61.64000 342.000
61.85000 353.000
61.98500 339.000

File: HSC058.xyd
2.00000 6.000
2.21000 6.000
2.42000 5.000
2.63000 7.000
2.84000 8.000
3.05000 9.000
3.26000 37.000
3.47000 421.000
3.68000 429.000
3.89000 397.000
4.10000 418.000
4.31000 406.000
4.52000 403.000
4.73000 408.000
4.94000 366.000
5.15000 406.000
5.36000 396.000
5.57000 413.000
5.78000 439.000
5.99000 449.000
6.20000 422.000
6.41000 443.000
6.62000 449.000
6.83000 462.000
7.04000 441.000
7.25000 476.000
7.46000 427.000
7.67000 461.000
7.88000 418.000
8.09000 450.000
8.30000 484.000
8.51000 478.000
8.72000 441.000
8.93000 498.000
9.14000 459.000
9.35000 484.000
9.56000 487.000
9.77000 489.000
9.98000 510.000
10.19000 498.000
10.40000 500.000
10.61000 523.000
10.82000 517.000
11.03000 561.000
11.24000 518.000
11.45000 538.000
11.66000 567.000
11.87000 588.000
12.08000 571.000
12.29000 635.000
12.50000 691.000
12.71000 747.000
12.92000 759.000
13.13000 754.000
13.34000 787.000
13.55000 732.000
13.76000 697.000
13.97000 717.000
14.18000 765.000
14.39000 664.000
14.60000 706.000
14.81000 679.000
15.02000 704.000
15.23000 687.000
15.44000 691.000
15.65000 674.000
15.86000 632.000
16.07000 654.000
16.28000 660.000
16.49000 650.000
16.70000 681.000
16.91000 661.000
17.12000 677.000
17.33000 680.000
17.54000 653.000
17.75000 682.000
17.96000 688.000
18.17000 714.000
18.38000 656.000
18.59000 696.000
18.80000 670.000
19.01000 663.000
19.22000 668.000
19.43000 678.000
19.64000 695.000
19.85000 686.000
20.06000 639.000
20.27000 669.000
20.48000 667.000
20.69000 660.000
20.90000 667.000
21.11000 705.000
21.32000 712.000
21.53000 681.000
21.74000 703.000
21.95000 717.000
22.16000 681.000
22.37000 676.000
22.58000 656.000
22.79000 670.000
23.00000 667.000
23.21000 669.000
23.42000 669.000
23.63000 673.000
23.84000 675.000
24.05000 696.000
24.26000 694.000
24.47000 684.000
24.68000 695.000
24.89000 750.000
25.10000 792.000
25.31000 746.000
25.52000 773.000
25.73000 827.000
25.94000 918.000
26.15000 1046.000
26.36000 1174.000
26.57000 1470.000
26.78000 1621.000
26.99000 2038.000
27.20000 2290.000
27.41000 2604.000
27.62000 2563.000
27.83000 2093.000
28.04000 1595.000
28.25000 1285.000
28.46000 1020.000
28.67000 918.000
28.88000 784.000
29.09000 750.000
29.30000 677.000
29.51000 667.000
29.72000 636.000
29.93000 608.000
30.14000 599.000
30.35000 531.000
30.56000 537.000
30.77000 551.000
30.98000 496.000
31.19000 507.000
31.40000 509.000
31.61000 482.000
31.82000 484.000
32.03000 481.000
32.24000 491.000
32.45000 449.000
32.66000 430.000
32.87000 439.000
33.08000 436.000
33.29000 442.000
33.50000 417.000
33.71000 431.000
33.92000 407.000
34.13000 405.000
34.34000 388.000
34.55000 378.000
34.76000 386.000
34.97000 376.000
35.18000 377.000
35.39000 376.000
35.60000 369.000
35.81000 347.000
36.02000 357.000
36.23000 332.000
36.44000 332.000
36.65000 343.000
36.86000 338.000
37.07000 340.000
37.28000 318.000
37.49000 316.000
37.70000 310.000
37.91000 328.000
38.12000 304.000
38.33000 325.000
38.54000 301.000
38.75000 312.000
38.96000 304.000
39.17000 313.000
39.38000 329.000
39.59000 309.000
39.80000 329.000
40.01000 332.000
40.22000 319.000
40.43000 310.000
40.64000 292.000
40.85000 331.000
41.06000 319.000
41.27000 314.000
41.48000 305.000
41.69000 278.000
41.90000 332.000
42.11000 316.000
42.32000 328.000
42.53000 315.000
42.74000 309.000
42.95000 300.000
43.16000 337.000
43.37000 309.000
43.58000 323.000
43.79000 338.000
44.00000 302.000
44.21000 318.000
44.42000 322.000
44.63000 336.000
44.84000 366.000
45.05000 336.000
45.26000 329.000
45.47000 333.000
45.68000 339.000
45.89000 319.000
46.10000 328.000
46.31000 295.000
46.52000 311.000
46.73000 321.000
46.94000 299.000
47.15000 305.000
47.36000 286.000
47.57000 293.000
47.78000 298.000
47.99000 260.000
48.20000 259.000
48.41000 280.000
48.62000 288.000
48.83000 284.000
49.04000 271.000
49.25000 254.000
49.46000 239.000
49.67000 281.000
49.88000 249.000
50.09000 260.000
50.30000 264.000
50.51000 260.000
50.72000 286.000
50.93000 268.000
51.14000 252.000
51.35000 250.000
51.56000 227.000
51.77000 254.000
51.98000 250.000
52.19000 251.000
52.40000 263.000
52.61000 258.000
52.82000 245.000
53.03000 254.000
53.24000 243.000
53.45000 249.000
53.66000 236.000
53.87000 245.000
54.08000 232.000
54.29000 256.000
54.50000 227.000
54.71000 254.000
54.92000 251.000
55.13000 243.000
55.34000 248.000
55.55000 254.000
55.76000 249.000
55.97000 264.000
56.18000 266.000
56.39000 262.000
56.60000 268.000
56.81000 282.000
57.02000 282.000
57.23000 270.000
57.44000 245.000
57.65000 251.000
57.86000 245.000
58.07000 245.000
58.28000 228.000
58.49000 237.000
58.70000 210.000
58.91000 244.000
59.12000 201.000
59.33000 185.000
59.54000 214.000
59.75000 205.000
59.96000 207.000
60.17000 212.000
60.38000 186.000
60.59000 186.000
60.80000 181.000
61.01000 194.000
61.22000 183.000
61.43000 200.000
61.64000 179.000
61.85000 183.000
61.98500 179.000

File: HSC059.xy
2.00000    7.000
2.21000    7.000
2.42000    8.000
2.63000    6.000
2.84000    7.000
3.05000    6.000
3.26000    173.000
3.47000    510.000
3.68000    475.000
3.89000    477.000
4.10000    455.000
4.31000    455.000
4.52000    500.000
4.73000    471.000
4.94000    457.000
5.15000    476.000
5.36000    465.000
5.57000    506.000
5.78000    465.000
5.99000    488.000
6.20000    471.000
6.41000    504.000
6.62000    446.000
6.83000    482.000
7.04000    519.000
7.25000    523.000
7.46000    521.000
7.67000    528.000
7.88000    507.000
8.09000    532.000
8.30000    548.000
8.51000    543.000
8.72000    543.000
8.93000    553.000
9.14000    559.000
9.35000    571.000
9.56000    596.000
9.77000    542.000
9.98000    614.000
10.19000    588.000
10.40000    617.000
10.61000    604.000
10.82000    625.000
11.03000    626.000
11.24000    652.000
11.45000    651.000
11.66000    615.000
11.87000    658.000
12.08000    673.000
12.29000    736.000
12.50000    834.000
12.71000    990.000
12.92000    995.000
13.13000    982.000
13.34000    976.000
13.55000    902.000
13.76000    919.000
13.97000    842.000
14.18000    846.000
14.39000    827.000
14.60000    817.000
14.81000    773.000
15.02000    804.000
15.23000    777.000
15.44000    748.000
15.65000    814.000
15.86000    782.000
16.07000    792.000
16.28000    786.000
16.49000    801.000
16.70000    746.000
16.91000    786.000
17.12000    807.000
17.33000    806.000
17.54000    794.000
17.75000    798.000
17.96000    792.000
18.17000    825.000
18.38000    808.000
18.59000    818.000
18.80000    795.000
19.01000    851.000
19.22000    806.000
19.43000    792.000
19.64000    736.000
19.85000    798.000
20.06000    811.000
20.27000    768.000
20.48000    808.000
20.69000    812.000
20.90000    795.000
21.11000    824.000
21.32000    839.000
21.53000    881.000
21.74000    810.000
21.95000    766.000
22.16000    796.000
22.37000    815.000
22.58000    810.000
22.79000    777.000
23.00000    752.000
23.21000    802.000
23.42000    783.000
23.63000    821.000
23.84000    811.000
24.05000    820.000
24.26000    799.000
24.47000    869.000
24.68000    886.000
24.89000    908.000
25.10000    931.000
25.31000    969.000
25.52000    1025.000
25.73000    1082.000
25.94000    1225.000
26.15000    1328.000
26.36000    1419.000
26.57000    1726.000
26.78000    2025.000
26.99000    2409.000
27.20000    2609.000
27.41000    2801.000
27.62000    2696.000
27.83000    2258.000
28.04000    1788.000
28.25000    1494.000
28.46000    1193.000
28.67000    1098.000
28.88000    942.000
29.09000    909.000
29.30000    835.000
29.51000    827.000
29.72000    780.000
29.93000    741.000
30.14000    671.000
30.35000    685.000
30.56000    683.000
30.77000    681.000
30.98000    654.000
31.19000    609.000
31.40000    606.000
31.61000    616.000
31.82000    570.000
32.03000    539.000
32.24000    544.000
32.45000    496.000
32.66000    515.000
32.87000    523.000
33.08000    494.000
33.29000    497.000
33.50000    489.000
33.71000    466.000
33.92000    505.000
34.13000    454.000
34.34000    446.000
34.55000    441.000
34.76000    419.000
34.97000    451.000
35.18000    429.000
35.39000    437.000
35.60000    429.000
35.81000    432.000
36.02000    396.000
36.23000    397.000
36.44000    404.000
36.65000    396.000
36.86000    423.000
37.07000    379.000
37.28000    380.000
37.49000    387.000
37.70000    363.000
37.91000    354.000
38.12000    338.000
38.33000    352.000
38.54000    378.000
38.75000    388.000
38.96000    341.000
39.17000    372.000
39.38000    356.000
39.59000    372.000
39.80000    355.000
40.01000    369.000
40.22000    349.000
40.43000    381.000
40.64000    372.000
40.85000    341.000
41.06000    368.000
41.27000    356.000
41.48000    341.000
41.69000    343.000
41.90000    387.000
42.11000    346.000
42.32000    345.000
42.53000    337.000
42.74000    369.000
42.95000    382.000
43.16000    387.000
43.37000    372.000
43.58000    414.000
43.79000    386.000
44.00000    365.000
44.21000    414.000
44.42000    410.000
44.63000    364.000
44.84000    405.000
45.05000    384.000
45.26000    376.000
45.47000    379.000
45.68000    376.000
45.89000    365.000
46.10000    364.000
46.31000    374.000
46.52000    388.000
46.73000    359.000
46.94000    355.000
47.15000    358.000
47.36000    357.000
47.57000    337.000
47.78000    340.000
47.99000    333.000
48.20000    339.000
48.41000    333.000
48.62000    323.000
48.83000    317.000
49.04000    323.000
49.25000    288.000
49.46000    307.000
49.67000    295.000
49.88000    321.000
50.09000    303.000
50.30000    300.000
50.51000    319.000
50.72000    288.000
50.93000    303.000
51.14000    296.000
51.35000    323.000
51.56000    293.000
51.77000    312.000
51.98000    283.000
52.19000    308.000
52.40000    276.000
52.61000    268.000
52.82000    313.000
53.03000    295.000
53.24000    279.000
53.45000    310.000
53.66000    301.000
53.87000    290.000
54.08000    284.000
54.29000    326.000
54.50000    292.000
54.71000    296.000
54.92000    304.000
55.13000    299.000
55.34000    305.000
55.55000    314.000
55.76000    301.000
55.97000    303.000
56.18000    298.000
56.39000    294.000
56.60000    301.000
56.81000    312.000
57.02000    315.000
57.23000    295.000
57.44000    289.000
57.65000    273.000
57.86000    256.000
58.07000    251.000
58.28000    276.000
58.49000    270.000
58.70000    269.000
58.91000    240.000
59.12000    263.000
59.33000    243.000
59.54000    235.000
59.75000    236.000
59.96000    231.000
60.17000    243.000
60.38000    238.000
60.59000    235.000
60.80000    231.000
61.01000    230.000
61.22000    226.000
61.43000    252.000
61.64000    226.000
61.85000    213.000
61.98500    224.000

File: HSC062.xy
2.00000 0.000
2.21000 2.000
2.42000 1.000
2.63000 2.000
2.84000 0.000
3.05000 14.000
3.26000 91.000
3.47000 88.000
3.68000 108.000
3.89000 123.000
4.10000 132.000
4.31000 136.000
4.52000 144.000
4.73000 135.000
4.94000 139.000
5.15000 167.000
5.36000 149.000
5.57000 163.000
5.78000 170.000
5.99000 181.000
6.20000 172.000
6.41000 185.000
6.62000 183.000
6.83000 212.000
7.04000 270.000
7.25000 659.000
7.46000 250.000
7.67000 234.000
7.88000 204.000
8.09000 280.000
8.30000 398.000
8.51000 691.000
8.72000 546.000
8.93000 432.000
9.14000 233.000
9.35000 226.000
9.56000 234.000
9.77000 231.000
9.98000 389.000
10.19000 222.000
10.40000 192.000
10.61000 224.000
10.82000 216.000
11.03000 207.000
11.24000 199.000
11.45000 206.000
11.66000 218.000
11.87000 178.000
12.08000 213.000
12.29000 230.000
12.50000 260.000
12.71000 237.000
12.92000 204.000
13.13000 223.000
13.34000 238.000
13.55000 221.000
13.76000 208.000
13.97000 217.000
14.18000 221.000
14.39000 256.000
14.60000 259.000
14.81000 245.000
15.02000 226.000
15.23000 218.000
15.44000 227.000
15.65000 245.000
15.86000 243.000
16.07000 216.000
16.28000 224.000
16.49000 223.000
16.70000 245.000
16.91000 249.000
17.12000 231.000
17.33000 215.000
17.54000 228.000
17.75000 247.000
17.96000 246.000
18.17000 231.000
18.38000 253.000
18.59000 263.000
18.80000 231.000
19.01000 254.000
19.22000 261.000
19.43000 238.000
19.64000 253.000
19.85000 256.000
20.06000 286.000
20.27000 297.000
20.48000 272.000
20.69000 321.000
20.90000 298.000
21.11000 358.000
21.32000 314.000
21.53000 334.000
21.74000 299.000
21.95000 325.000
22.16000 296.000
22.37000 325.000
22.58000 436.000
22.79000 402.000
23.00000 345.000
23.21000 390.000
23.42000 331.000
23.63000 317.000
23.84000 319.000
24.05000 302.000
24.26000 376.000
24.47000 386.000
24.68000 324.000
24.89000 407.000
25.10000 408.000
25.31000 346.000
25.52000 361.000
25.73000 377.000
25.94000 363.000
26.15000 414.000
26.36000 488.000
26.57000 445.000
26.78000 669.000
26.99000 777.000
27.20000 736.000
27.41000 944.000
27.62000 1076.000
27.83000 947.000
28.04000 967.000
28.25000 1011.000
28.46000 688.000
28.67000 905.000
28.88000 704.000
29.09000 733.000
29.30000 779.000
29.51000 626.000
29.72000 535.000
29.93000 507.000
30.14000 428.000
30.35000 450.000
30.56000 472.000
30.77000 623.000
30.98000 557.000
31.19000 473.000
31.40000 477.000
31.61000 436.000
31.82000 462.000
32.03000 420.000
32.24000 417.000
32.45000 340.000
32.66000 319.000
32.87000 313.000
33.08000 343.000
33.29000 335.000
33.50000 346.000
33.71000 333.000
33.92000 337.000
34.13000 275.000
34.34000 260.000
34.55000 238.000
34.76000 268.000
34.97000 314.000
35.18000 322.000
35.39000 314.000
35.60000 273.000
35.81000 271.000
36.02000 257.000
36.23000 260.000
36.44000 258.000
36.65000 238.000
36.86000 249.000
37.07000 256.000
37.28000 254.000
37.49000 291.000
37.70000 307.000
37.91000 322.000
38.12000 297.000
38.33000 256.000
38.54000 275.000
38.75000 304.000
38.96000 259.000
39.17000 274.000
39.38000 285.000
39.59000 280.000
39.80000 277.000
40.01000 227.000
40.22000 252.000
40.43000 295.000
40.64000 248.000
40.85000 266.000
41.06000 248.000
41.27000 257.000
41.48000 271.000
41.69000 270.000
41.90000 245.000
42.11000 218.000
42.32000 265.000
42.53000 263.000
42.74000 244.000
42.95000 250.000
43.16000 236.000
43.37000 226.000
43.58000 258.000
43.79000 220.000
44.00000 197.000
44.21000 230.000
44.42000 210.000
44.63000 211.000
44.84000 201.000
45.05000 213.000
45.26000 201.000
45.47000 217.000
45.68000 245.000
45.89000 236.000
46.10000 237.000
46.31000 234.000
46.52000 238.000
46.73000 189.000
46.94000 168.000
47.15000 179.000
47.36000 158.000
47.57000 143.000
47.78000 157.000
47.99000 176.000
48.20000 193.000
48.41000 199.000
48.62000 212.000
48.83000 207.000
49.04000 192.000
49.25000 183.000
49.46000 205.000
49.67000 168.000
49.88000 181.000
50.09000 180.000
50.30000 144.000
50.51000 151.000
50.72000 170.000
50.93000 163.000
51.14000 163.000
51.35000 157.000
51.56000 167.000
51.77000 157.000
51.98000 156.000
52.19000 153.000
52.40000 164.000
52.61000 143.000
52.82000 154.000
53.03000 159.000
53.24000 140.000
53.45000 147.000
53.66000 153.000
53.87000 159.000
54.08000 180.000
54.29000 149.000
54.50000 154.000
54.71000 172.000
54.92000 173.000
55.13000 159.000
55.34000 181.000
55.55000 189.000
55.76000 170.000
55.97000 175.000
56.18000 209.000
56.39000 188.000
56.60000 171.000
56.81000 163.000
57.02000 161.000
57.23000 149.000
57.44000 146.000
57.65000 158.000
57.86000 151.000
58.07000 175.000
58.28000 149.000
58.49000 163.000
58.70000 144.000
58.91000 133.000
59.12000 146.000
59.33000 155.000
59.54000 149.000
59.75000 149.000
59.96000 154.000
60.17000 161.000
60.38000 162.000
60.59000 151.000
60.80000 149.000
61.01000 147.000
61.22000 151.000
61.43000 155.000
61.64000 124.000
61.85000 137.000
61.98500 140.000

File: HSC062_Rueck.xy
5.00000 822.000
5.19500 846.000
5.39000 806.000
5.58500 818.000
5.78000 810.000
5.97500 793.000
6.17000 765.000
6.36500 730.000
6.56000 715.000
6.75500 765.000
6.95000 776.000
7.14500 738.000
7.34000 862.000
7.53500 954.000
7.73000 1331.000
7.92500 2055.000
8.12000 2199.000
8.31500 1813.000
8.51000 1620.000
8.70500 1394.000
8.90000 1430.000
9.09500 1339.000
9.29000 1294.000
9.48500 1259.000
9.68000 1170.000
9.87500 1059.000
10.07000 1053.000
10.26500 978.000
10.46000 841.000
10.65500 846.000
10.85000 816.000
11.04500 782.000
11.24000 741.000
11.43500 760.000
11.63000 736.000
11.82500 748.000
12.02000 729.000
12.21500 765.000
12.41000 718.000
12.60500 760.000
12.80000 745.000
12.99500 718.000
13.19000 732.000
13.38500 767.000
13.58000 717.000
13.77500 826.000
13.97000 799.000
14.16500 867.000
14.36000 800.000
14.55500 809.000
14.75000 793.000
14.94500 828.000
15.14000 779.000
15.33500 796.000
15.53000 757.000
15.72500 835.000
15.92000 815.000
16.11500 822.000
16.31000 807.000
16.50500 803.000
16.70000 839.000
16.89500 800.000
17.09000 799.000
17.28500 811.000
17.48000 810.000
17.67500 838.000
17.87000 855.000
18.06500 822.000
18.26000 833.000
18.45500 816.000
18.65000 789.000
18.84500 809.000
19.04000 796.000
19.23500 779.000
19.43000 802.000
19.62500 816.000
19.82000 796.000
20.01500 844.000
20.21000 875.000
20.40500 815.000
20.60000 816.000
20.79500 865.000
20.99000 911.000
21.18500 1003.000
21.38000 1107.000
21.57500 1061.000
21.77000 957.000
21.96500 990.000
22.16000 944.000
22.35500 972.000
22.55000 1008.000
22.74500 985.000
22.94000 1051.000
23.13500 1044.000
23.33000 1030.000
23.52500 1098.000
23.72000 1082.000
23.91500 1113.000
24.11000 1127.000
24.30500 1141.000
24.50000 1123.000
24.69500 1127.000
24.89000 1188.000
25.08500 1142.000
25.28000 1153.000
25.47500 1077.000
25.67000 1110.000
25.86500 1103.000
26.06000 1183.000
26.25500 1150.000
26.45000 1171.000
26.64500 1220.000
26.84000 1301.000
27.03500 1322.000
27.23000 1388.000
27.42500 1500.000
27.62000 1735.000
27.81500 2201.000
28.01000 3132.000
28.20500 4992.000
28.40000 6236.000
28.59500 3936.000
28.79000 2565.000
28.98500 1904.000
29.18000 1710.000
29.37500 1490.000
29.57000 1342.000
29.76500 1250.000
29.96000 1201.000
30.15500 1136.000
30.35000 1104.000
30.54500 1063.000
30.74000 1026.000
30.93500 1016.000
31.13000 1024.000
31.32500 911.000
31.52000 969.000
31.71500 918.000
31.91000 931.000
32.10500 936.000
32.30000 1030.000
32.49500 956.000
32.69000 949.000
32.88500 817.000
33.08000 798.000
33.27500 790.000
33.47000 766.000
33.66500 788.000
33.86000 747.000
34.05500 743.000
34.25000 736.000
34.44500 738.000
34.64000 733.000
34.83500 734.000
35.03000 737.000
35.22500 883.000
35.42000 964.000
35.61500 933.000
35.81000 931.000
36.00500 907.000
36.20000 871.000
36.39500 901.000
36.59000 918.000
36.78500 911.000
36.98000 874.000
37.17500 888.000
37.37000 899.000
37.56500 802.000
37.76000 877.000
37.95500 773.000
38.15000 771.000
38.34500 760.000
38.54000 691.000
38.73500 716.000
38.93000 728.000
39.12500 696.000
39.32000 697.000
39.51500 681.000
39.71000 687.000
39.90500 651.000
40.10000 637.000
40.29500 621.000
40.49000 658.000
40.68500 604.000
40.88000 596.000
41.07500 619.000
41.27000 586.000
41.46500 557.000
41.66000 587.000
41.85500 549.000
42.05000 559.000
42.24500 590.000
42.44000 625.000
42.63500 590.000
42.83000 610.000
43.02500 674.000
43.22000 749.000
43.41500 742.000
43.61000 731.000
43.80500 704.000
44.00000 699.000
44.19500 669.000
44.39000 670.000
44.58500 700.000
44.78000 652.000
44.97500 661.000
45.17000 661.000
45.36500 646.000
45.56000 641.000
45.75500 601.000
45.95000 545.000
46.14500 565.000
46.34000 535.000
46.53500 540.000
46.73000 545.000
46.92500 508.000
47.12000 479.000
47.31500 493.000
47.51000 537.000
47.70500 465.000
47.90000 452.000
48.09500 484.000
48.29000 457.000
48.48500 472.000
48.68000 438.000
48.87500 462.000
49.07000 445.000
49.26500 447.000
49.46000 454.000
49.65500 475.000
49.85000 454.000
50.04500 490.000
50.24000 479.000
50.43500 487.000
50.63000 465.000
50.82500 459.000
51.02000 486.000
51.21500 423.000
51.41000 462.000
51.60500 457.000
51.80000 476.000
51.99500 457.000
52.19000 468.000
52.38500 473.000
52.58000 444.000
52.77500 464.000
52.97000 492.000
53.16500 459.000
53.36000 434.000
53.55500 465.000
53.75000 464.000
53.94500 465.000
54.14000 402.000
54.33500 423.000
54.53000 395.000
54.72500 443.000
54.92000 420.000
55.11500 441.000
55.31000 416.000
55.50500 388.000
55.70000 432.000
55.89500 396.000
56.09000 403.000
56.28500 402.000
56.48000 404.000
56.67500 433.000
56.87000 374.000
57.06500 420.000
57.26000 461.000
57.45500 431.000
57.65000 446.000
57.84500 443.000
58.04000 453.000
58.23500 470.000
58.43000 487.000
58.62500 541.000
58.82000 492.000
59.01500 493.000
59.21000 458.000
59.40500 464.000
59.60000 430.000
59.79500 399.000
59.99000 389.000
60.18500 401.000
60.38000 380.000
60.48500 409.000