Folder: phd-thesis/ISoD/xrd_data

Note: README.md
# phd-thesis
Coding projects developed during my doctoral studies

File: Ag_Melonat.xy
2.00000 22.000
2.18000 13.000
2.36000 20.000
2.54000 11.000
2.72000 11.000
2.90000 12.000
3.08000 9.000
3.26000 8.000
3.44000 7.000
3.62000 6.000
3.80000 7.000
3.98000 10.000
4.16000 7.000
4.34000 5.000
4.52000 9.000
4.70000 6.000
4.88000 4.000
5.06000 4.000
5.24000 6.000
5.42000 7.000
5.60000 9.000
5.78000 11.000
5.96000 6.000
6.14000 10.000
6.32000 10.000
6.50000 8.000
6.68000 11.000
6.86000 5.000
7.04000 5.000
7.22000 5.000
7.40000 4.000
7.58000 3.000
7.76000 10.000
7.94000 10.000
8.12000 8.000
8.30000 7.000
8.48000 6.000
8.66000 11.000
8.84000 11.000
9.02000 6.000
9.20000 8.000
9.38000 10.000
9.56000 6.000
9.74000 10.000
9.92000 7.000
10.10000 10.000
10.28000 6.000
10.46000 13.000
10.64000 5.000
10.82000 9.000
11.00000 9.000
11.18000 7.000
11.36000 12.000
11.54000 11.000
11.72000 8.000
11.90000 10.000
12.08000 13.000
12.26000 10.000
12.44000 6.000
12.62000 10.000
12.80000 8.000
12.98000 11.000
13.16000 8.000
13.34000 7.000
13.52000 8.000
13.70000 9.000
13.88000 8.000
14.06000 12.000
14.24000 13.000
14.42000 8.000
14.60000 11.000
14.78000 10.000
14.96000 12.000
15.14000 14.000
15.32000 12.000
15.50000 6.000
15.68000 9.000
15.86000 7.000
16.04000 11.000
16.22000 8.000
16.40000 8.000
16.58000 12.000
16.76000 12.000
16.94000 6.000
17.12000 11.000
17.30000 11.000
17.48000 9.000
17.66000 7.000
17.84000 11.000
18.02000 9.000
18.20000 6.000
18.38000 9.000
18.56000 12.000
18.74000 15.000
18.92000 8.000
19.10000 9.000
19.28000 7.000
19.46000 10.000
19.64000 7.000
19.82000 6.000
20.00000 10.000
20.18000 14.000
20.36000 10.000
20.54000 9.000
20.72000 9.000
20.90000 10.000
21.08000 8.000
21.26000 11.000
21.44000 8.000
21.62000 12.000
21.80000 8.000
21.98000 7.000
22.16000 8.000
22.34000 14.000
22.52000 7.000
22.70000 7.000
22.88000 9.000
23.06000 6.000
23.24000 6.000
23.42000 6.000
23.60000 6.000
23.78000 11.000
23.96000 7.000
24.14000 5.000
24.32000 10.000
24.50000 15.000
24.68000 11.000
24.86000 12.000
25.04000 13.000
25.22000 11.000
25.40000 10.000
25.58000 9.000
25.76000 16.000
25.94000 7.000
26.12000 6.000
26.30000 11.000
26.48000 13.000
26.66000 10.000
26.84000 5.000
27.02000 10.000
27.20000 8.000
27.38000 11.000
27.56000 15.000
27.74000 10.000
27.92000 11.000
28.10000 15.000
28.28000 10.000
28.46000 15.000
28.64000 13.000
28.82000 19.000
29.00000 17.000
29.18000 12.000
29.36000 9.000
29.54000 16.000
29.72000 14.000
29.90000 13.000
30.08000 9.000
30.26000 17.000
30.44000 10.000
30.62000 11.000
30.80000 6.000
30.98000 10.000
31.16000 12.000
31.34000 10.000
31.52000 13.000
31.70000 9.000
31.88000 4.000
32.06000 9.000
32.24000 11.000
32.42000 16.000
32.60000 11.000
32.78000 10.000
32.96000 13.000
33.14000 11.000
33.32000 9.000
33.50000 10.000
33.68000 12.000
33.86000 11.000
34.04000 12.000
34.22000 8.000
34.40000 12.000
34.58000 9.000
34.76000 10.000
34.94000 6.000
35.12000 11.000
35.30000 10.000
35.48000 8.000
35.66000 7.000
35.84000 7.000
36.02000 9.000
36.20000 11.000
36.38000 15.000
36.56000 11.000
36.74000 5.000
36.92000 11.000
37.10000 16.000
37.28000 6.000
37.46000 9.000
37.64000 13.000
37.82000 8.000
38.00000 10.000
38.18000 10.000
38.36000 14.000
38.54000 9.000
38.72000 9.000
38.90000 12.000
39.08000 8.000
39.26000 7.000
39.44000 11.000
39.62000 13.000
39.80000 11.000
39.98000 11.000
40.16000 12.000
40.34000 12.000
40.52000 13.000
40.70000 17.000
40.88000 7.000
41.06000 10.000
41.24000 10.000
41.42000 11.000
41.60000 11.000
41.78000 10.000
41.96000 9.000
42.14000 11.000
42.32000 7.000
42.50000 10.000
42.68000 4.000
42.86000 9.000
43.04000 11.000
43.22000 6.000
43.40000 9.000
43.58000 11.000
43.76000 6.000
43.94000 9.000
44.12000 10.000
44.30000 11.000
44.48000 9.000
44.66000 9.000
44.84000 12.000
45.02000 10.000
45.20000 8.000
45.38000 11.000
45.56000 10.000
45.74000 12.000
45.92000 9.000
46.10000 10.000
46.28000 5.000
46.46000 13.000
46.64000 9.000
46.82000 11.000
47.00000 13.000
47.18000 12.000
47.36000 11.000
47.54000 10.000
47.72000 12.000
47.90000 8.000
48.08000 12.000
48.26000 10.000
48.44000 10.000
48.62000 10.000
48.80000 14.000
48.98000 15.000
49.16000 14.000
49.34000 6.000
49.52000 14.000
49.70000 11.000
49.88000 12.000
50.06000 11.000
50.24000 15.000
50.42000 9.000
50.60000 9.000
50.78000 7.000
50.96000 15.000
51.14000 7.000
51.32000 10.000
51.50000 10.000
51.68000 16.000
51.86000 14.000
52.04000 11.000
52.22000 8.000
52.40000 10.000
52.58000 10.000
52.76000 6.000
52.94000 11.000
53.12000 8.000
53.30000 7.000
53.48000 11.000
53.66000 11.000
53.84000 10.000
54.02000 13.000
54.20000 6.000
54.38000 9.000
54.48500 11.000

File: HSA09.xy
2.00000,2.000
2.21000,2.000
2.42000,2.000
2.63000,2.000
2.84000,3.000
3.05000,1.000
3.26000,468.000
3.47000,1004.000
3.68000,868.000
3.89000,804.000
4.10000,737.000
4.31000,659.000
4.52000,607.000
4.73000,532.000
4.94000,534.000
5.15000,499.000
5.36000,497.000
5.57000,473.000
5.78000,446.000
5.99000,426.000
6.20000,412.000
6.41000,386.000
6.62000,372.000
6.83000,393.000
7.04000,429.000
7.25000,379.000
7.46000,386.000
7.67000,413.000
7.88000,351.000
8.09000,372.000
8.30000,365.000
8.51000,364.000
8.72000,335.000
8.93000,345.000
9.14000,337.000
9.35000,331.000
9.56000,374.000
9.77000,361.000
9.98000,376.000
10.19000,380.000
10.40000,366.000
10.61000,367.000
10.82000,392.000
11.03000,365.000
11.24000,365.000
11.45000,392.000
11.66000,381.000
11.87000,401.000
12.08000,380.000
12.29000,385.000
12.50000,403.000
12.71000,393.000
12.92000,459.000
13.13000,439.000
13.34000,490.000
13.55000,476.000
13.76000,624.000
13.97000,572.000
14.18000,550.000
14.39000,516.000
14.60000,493.000
14.81000,475.000
15.02000,476.000
15.23000,505.000
15.44000,504.000
15.65000,519.000
15.86000,517.000
16.07000,496.000
16.28000,452.000
16.49000,483.000
16.70000,521.000
16.91000,483.000
17.12000,439.000
17.33000,431.000
17.54000,463.000
17.75000,436.000
17.96000,463.000
18.17000,429.000
18.38000,407.000
18.59000,435.000
18.80000,447.000
19.01000,463.000
19.22000,411.000
19.43000,437.000
19.64000,460.000
19.85000,397.000
20.06000,436.000
20.27000,401.000
20.48000,450.000
20.69000,426.000
20.90000,443.000
21.11000,474.000
21.32000,445.000
21.53000,461.000
21.74000,442.000
21.95000,419.000
22.16000,464.000
22.37000,490.000
22.58000,462.000
22.79000,473.000
23.00000,518.000
23.21000,522.000
23.42000,522.000
23.63000,520.000
23.84000,580.000
24.05000,568.000
24.26000,583.000
24.47000,569.000
24.68000,579.000
24.89000,621.000
25.10000,627.000
25.31000,598.000
25.52000,677.000
25.73000,690.000
25.94000,635.000
26.15000,642.000
26.36000,643.000
26.57000,656.000
26.78000,624.000
26.99000,602.000
27.20000,562.000
27.41000,531.000
27.62000,484.000
27.83000,485.000
28.04000,475.000
28.25000,432.000
28.46000,445.000
28.67000,438.000
28.88000,418.000
29.09000,419.000
29.30000,352.000
29.51000,401.000
29.72000,369.000
29.93000,341.000
30.14000,365.000
30.35000,344.000
30.56000,307.000
30.77000,294.000
30.98000,325.000
31.19000,317.000
31.40000,291.000
31.61000,291.000
31.82000,305.000
32.03000,270.000
32.24000,273.000
32.45000,260.000
32.66000,265.000
32.87000,263.000
33.08000,245.000
33.29000,243.000
33.50000,260.000
33.71000,245.000
33.92000,252.000
34.13000,263.000
34.34000,248.000
34.55000,225.000
34.76000,219.000
34.97000,224.000
35.18000,220.000
35.39000,243.000
35.60000,215.000
35.81000,211.000
36.02000,207.000
36.23000,194.000
36.44000,211.000
36.65000,202.000
36.86000,189.000
37.07000,205.000
37.28000,199.000
37.49000,199.000
37.70000,189.000
37.91000,186.000
38.12000,185.000
38.33000,186.000
38.54000,207.000
38.75000,187.000
38.96000,175.000
39.17000,168.000
39.38000,198.000
39.59000,186.000
39.80000,192.000
40.01000,164.000
40.22000,191.000
40.43000,173.000
40.64000,172.000
40.85000,166.000
41.06000,188.000
41.27000,198.000
41.48000,191.000
41.69000,208.000
41.90000,189.000
42.11000,202.000
42.32000,200.000
42.53000,189.000
42.74000,186.000
42.95000,192.000
43.16000,210.000
43.37000,194.000
43.58000,207.000
43.79000,180.000
44.00000,199.000
44.21000,183.000
44.42000,186.000
44.63000,187.000
44.84000,208.000
45.05000,171.000
45.26000,185.000
45.47000,191.000
45.68000,199.000
45.89000,160.000
46.10000,179.000
46.31000,175.000
46.52000,155.000
46.73000,184.000
46.94000,167.000
47.15000,174.000
47.36000,155.000
47.57000,159.000
47.78000,141.000
47.99000,150.000
48.20000,147.000
48.41000,137.000
48.62000,155.000
48.83000,144.000
49.04000,159.000
49.25000,136.000
49.46000,131.000
49.67000,145.000
49.88000,136.000
50.09000,150.000
50.30000,139.000
50.51000,151.000
50.72000,125.000
50.93000,146.000
51.14000,138.000
51.35000,158.000
51.56000,115.000
51.77000,139.000
51.98000,141.000
52.19000,157.000
52.40000,130.000
52.61000,157.000
52.82000,146.000
53.03000,133.000
53.24000,140.000
53.45000,127.000
53.66000,142.000
53.87000,133.000
54.08000,122.000
54.29000,143.000
54.50000,127.000
54.71000,116.000
54.92000,131.000
55.13000,144.000
55.34000,142.000
55.55000,126.000
55.76000,123.000
55.97000,118.000
56.18000,129.000
56.39000,118.000
56.60000,127.000
56.81000,118.000
57.02000,119.000
57.23000,106.000
57.44000,110.000
57.65000,113.000
57.86000,128.000
58.07000,105.000
58.28000,117.000
58.49000,107.000
58.70000,113.000
58.91000,110.000
59.12000,110.000
59.33000,95.000
59.54000,112.000
59.75000,111.000
59.96000,108.000
60.17000,95.000
60.38000,123.000
60.59000,111.000
60.80000,116.000
61.01000,106.000
61.22000,87.000
61.43000,111.000
61.64000,96.000
61.85000,95.000
61.98500,91.000

File: HSC005_range_2.xy
2.00000 321.000
2.21000 242.000
2.42000 214.000
2.63000 196.000
2.84000 188.000
3.05000 176.000
3.26000 150.000
3.47000 179.000
3.68000 147.000
3.89000 175.000
4.10000 151.000
4.31000 173.000
4.52000 157.000
4.73000 150.000
4.94000 155.000
5.15000 165.000
5.36000 171.000
5.57000 162.000
5.78000 184.000
5.99000 173.000
6.20000 174.000
6.41000 177.000
6.62000 169.000
6.83000 160.000
7.04000 162.000
7.25000 163.000
7.46000 161.000
7.67000 161.000
7.88000 163.000
8.09000 158.000
8.30000 152.000
8.51000 152.000
8.72000 164.000
8.93000 138.000
9.14000 154.000
9.35000 172.000
9.56000 173.000
9.77000 175.000
9.98000 164.000
10.19000 201.000
10.40000 178.000
10.61000 184.000
10.82000 185.000
11.03000 165.000
11.24000 162.000
11.45000 159.000
11.66000 149.000
11.87000 200.000
12.08000 485.000
12.29000 194.000
12.50000 175.000
12.71000 179.000
12.92000 179.000
13.13000 177.000
13.34000 170.000
13.55000 154.000
13.76000 141.000
13.97000 179.000
14.18000 191.000
14.39000 173.000
14.60000 181.000
14.81000 182.000
15.02000 191.000
15.23000 163.000
15.44000 191.000
15.65000 166.000
15.86000 186.000
16.07000 178.000
16.28000 182.000
16.49000 185.000
16.70000 178.000
16.91000 197.000
17.12000 188.000
17.33000 194.000
17.54000 191.000
17.75000 206.000
17.96000 182.000
18.17000 186.000
18.38000 218.000
18.59000 198.000
18.80000 224.000
19.01000 230.000
19.22000 215.000
19.43000 211.000
19.64000 205.000
19.85000 205.000
20.06000 227.000
20.27000 214.000
20.48000 222.000
20.69000 252.000
20.90000 2363.000
21.11000 275.000
21.32000 258.000
21.53000 228.000
21.74000 237.000
21.95000 242.000
22.16000 240.000
22.37000 224.000
22.58000 232.000
22.79000 219.000
23.00000 250.000
23.21000 231.000
23.42000 235.000
23.63000 222.000
23.84000 258.000
24.05000 323.000
24.26000 1483.000
24.47000 400.000
24.68000 312.000
24.89000 296.000
25.10000 684.000
25.31000 484.000
25.52000 324.000
25.73000 308.000
25.94000 280.000
26.15000 312.000
26.36000 301.000
26.57000 329.000
26.78000 342.000
26.99000 347.000
27.20000 377.000
27.41000 397.000
27.62000 452.000
27.83000 1033.000
28.04000 2525.000
28.25000 586.000
28.46000 369.000
28.67000 298.000
28.88000 249.000
29.09000 251.000
29.30000 244.000
29.51000 246.000
29.72000 228.000
29.93000 224.000
30.14000 197.000
30.35000 219.000
30.56000 242.000
30.77000 210.000
30.98000 198.000
31.19000 194.000
31.40000 195.000
31.61000 207.000
31.82000 191.000
32.03000 239.000
32.24000 2574.000
32.45000 221.000
32.66000 239.000
32.87000 414.000
33.08000 359.000
33.29000 201.000
33.50000 190.000
33.71000 156.000
33.92000 171.000
34.13000 179.000
34.34000 158.000
34.55000 169.000
34.76000 189.000
34.97000 241.000
35.18000 478.000
35.39000 284.000
35.60000 189.000
35.81000 137.000
36.02000 132.000
36.23000 142.000
36.44000 121.000
36.65000 351.000
36.86000 129.000
37.07000 120.000
37.28000 135.000
37.49000 151.000
37.70000 122.000
37.91000 123.000
38.12000 115.000
38.33000 112.000
38.54000 113.000
38.75000 110.000
38.96000 113.000
39.17000 115.000
39.38000 117.000
39.59000 113.000
39.80000 123.000
40.01000 126.000
40.22000 129.000
40.43000 99.000
40.64000 124.000
40.85000 132.000
41.06000 159.000
41.27000 279.000
41.48000 210.000
41.69000 132.000
41.90000 135.000
42.11000 125.000
42.32000 126.000
42.53000 108.000
42.74000 124.000
42.95000 117.000
43.16000 125.000
43.37000 114.000
43.58000 124.000
43.79000 110.000
44.00000 131.000
44.21000 139.000
44.42000 637.000
44.63000 244.000
44.84000 224.000
45.05000 287.000
45.26000 179.000
45.47000 134.000
45.68000 118.000
45.89000 130.000
46.10000 140.000
46.31000 168.000
46.52000 132.000
46.73000 118.000
46.94000 103.000
47.15000 124.000
47.36000 123.000
47.57000 113.000
47.78000 118.000
47.99000 101.000
48.20000 94.000
48.41000 112.000
48.62000 109.000
48.83000 106.000
49.04000 122.000
49.25000 109.000
49.46000 117.000
49.67000 244.000
49.88000 218.000
50.09000 412.000
50.30000 274.000
50.51000 170.000
50.72000 132.000
50.93000 121.000
51.14000 115.000
51.35000 159.000
51.56000 237.000
51.77000 320.000
51.98000 165.000
52.19000 131.000
52.40000 112.000
52.61000 111.000
52.82000 121.000
53.03000 116.000
53.24000 133.000
53.45000 118.000
53.66000 104.000
53.87000 98.000
54.08000 110.000
54.29000 167.000
54.50000 265.000
54.71000 114.000
54.92000 105.000
55.13000 103.000
55.34000 122.000
55.55000 111.000
55.76000 115.000
55.97000 122.000
56.18000 167.000
56.39000 188.000
56.60000 171.000
56.81000 115.000
57.02000 107.000
57.23000 108.000
57.44000 191.000
57.65000 142.000
57.86000 139.000
58.07000 131.000
58.28000 117.000
58.49000 96.000
58.70000 90.000
58.91000 100.000
59.12000 100.000
59.33000 89.000
59.54000 99.000
59.75000 103.000
59.96000 101.000
60.17000 104.000
60.38000 104.000
60.59000 93.000
60.80000 103.000
61.01000 114.000
61.22000 97.000
61.43000 96.000
61.64000 103.000
61.85000 108.000
61.98500 132.000

File: HSC005_ranges_combined.xy
2.0 627.0
2.21 497.0
2.42 418.0
2.63 376.0
2.84 374.0
3.05 345.0
3.26 310.0
3.47 330.0
3.68 311.0
3.89 326.0
4.1 308.0
4.31 343.0
4.52 303.0
4.73 312.0
4.94 307.0
5.15 326.0
5.36 306.0
5.57 332.0
5.78 362.0
5.99 337.0
6.2 344.0
6.41 347.0
6.62 338.0
6.83 320.0
7.04 318.0
7.25 314.0
7.46 323.0
7.67 301.0
7.88 309.0
8.09 310.0
8.3 311.0
8.51 310.0
8.72 334.0
8.93 300.0
9.14 332.0
9.35 354.0
9.56 342.0
9.77 343.0
9.98 336.0
10.19 374.0
10.4 331.0
10.61 367.0
10.82 360.0
11.03 342.0
11.24 311.0
11.45 306.0
11.66 302.0
11.87 394.0
12.08 969.0
12.29 371.0
12.5 324.0
12.71 340.0
12.92 339.0
13.13 338.0
13.34 347.0
13.55 328.0
13.76 299.0
13.97 325.0
14.18 360.0
14.39 351.0
14.6 336.0
14.81 355.0
15.02 360.0
15.23 330.0
15.44 359.0
15.65 335.0
15.86 361.0
16.07 372.0
16.28 351.0
16.49 365.0
16.7 354.0
16.91 363.0
17.12 357.0
17.33 392.0
17.54 384.0
17.75 392.0
17.96 376.0
18.17 364.0
18.38 409.0
18.59 391.0
18.8 435.0
19.01 433.0
19.22 416.0
19.43 391.0
19.64 401.0
19.85 401.0
20.06 422.0
20.27 419.0
20.48 435.0
20.69 502.0
20.9 4593.0
21.11 546.0
21.32 457.0
21.53 458.0
21.74 449.0
21.95 476.0
22.16 462.0
22.37 435.0
22.58 464.0
22.79 463.0
23.0 464.0
23.21 457.0
23.42 487.0
23.63 463.0
23.84 520.0
24.05 600.0
24.26 2973.0
24.47 844.0
24.68 604.0
24.89 579.0
25.1 1247.0
25.31 920.0
25.52 640.0
25.73 594.0
25.94 552.0
26.15 647.0
26.36 610.0
26.57 646.0
26.78 688.0
26.99 692.0
27.2 741.0
27.41 783.0
27.62 886.0
27.83 2035.0
28.04 4998.0
28.25 1180.0
28.46 731.0
28.67 599.0
28.88 502.0
29.09 492.0
29.3 477.0
29.51 474.0
29.72 454.0
29.93 454.0
30.14 385.0
30.35 434.0
30.56 435.0
30.77 395.0
30.98 375.0
31.19 373.0
31.4 368.0
31.61 394.0
31.82 366.0
32.03 466.0
32.24 5052.0
32.45 442.0
32.66 466.0
32.87 791.0
33.08 707.0
33.29 408.0
33.5 359.0
33.71 324.0
33.92 328.0
34.13 326.0
34.34 297.0
34.55 337.0
34.76 379.0
34.97 464.0
35.18 906.0
35.39 535.0
35.6 377.0
35.81 260.0
36.02 256.0
36.23 264.0
36.44 266.0
36.65 672.0
36.86 259.0
37.07 254.0
37.28 265.0
37.49 274.0
37.7 247.0
37.91 246.0
38.12 234.0
38.33 226.0
38.54 222.0
38.75 238.0
38.96 242.0
39.17 219.0
39.38 235.0
39.59 223.0
39.8 253.0
40.01 232.0
40.22 237.0
40.43 218.0
40.64 247.0
40.85 251.0
41.06 336.0
41.27 559.0
41.48 425.0
41.69 263.0
41.9 266.0
42.11 245.0
42.32 237.0
42.53 231.0
42.74 224.0
42.95 226.0
43.16 242.0
43.37 208.0
43.58 225.0
43.79 234.0
44.0 252.0
44.21 267.0
44.42 1219.0
44.63 470.0
44.84 465.0
45.05 568.0
45.26 364.0
45.47 262.0
45.68 233.0
45.89 247.0
46.1 259.0
46.31 330.0
46.52 243.0
46.73 217.0
46.94 202.0
47.15 230.0
47.36 212.0
47.57 220.0
47.78 215.0
47.99 205.0
48.2 199.0
48.41 213.0
48.62 203.0
48.83 216.0
49.04 230.0
49.25 245.0
49.46 243.0
49.67 478.0
49.88 420.0
50.09 836.0
50.3 533.0
50.51 346.0
50.72 262.0
50.93 229.0
51.14 241.0
51.35 286.0
51.56 447.0
51.77 629.0
51.98 335.0
52.19 241.0
52.4 218.0
52.61 227.0
52.82 227.0
53.03 228.0
53.24 261.0
53.45 226.0
53.66 187.0
53.87 195.0
54.08 210.0
54.29 332.0
54.5 493.0
54.71 229.0
54.92 193.0
55.13 225.0
55.34 223.0
55.55 235.0
55.76 221.0
55.97 233.0
56.18 299.0
56.39 373.0
56.6 309.0
56.81 216.0
57.02 216.0
57.23 214.0
57.44 387.0
57.65 270.0
57.86 295.0
58.07 256.0
58.28 210.0
58.49 200.0
58.7 192.0
58.91 214.0
59.12 190.0
59.33 168.0
59.54 196.0
59.75 198.0
59.96 205.0
60.17 208.0
60.38 212.0
60.59 202.0
60.8 213.0
61.01 207.0
61.22 195.0
61.43 185.0
61.64 210.0
61.85 233.0
61.985 253.0

File: HSC005II.xy
2.00000 380.000
2.21000 305.000
2.42000 317.000
2.63000 285.000
2.84000 269.000
3.05000 275.000
3.26000 239.000
3.47000 230.000
3.68000 244.000
3.89000 235.000
4.10000 245.000
4.31000 271.000
4.52000 251.000
4.73000 260.000
4.94000 235.000
5.15000 262.000
5.36000 271.000
5.57000 256.000
5.78000 254.000
5.99000 263.000
6.20000 294.000
6.41000 270.000
6.62000 257.000
6.83000 276.000
7.04000 241.000
7.25000 277.000
7.46000 260.000
7.67000 248.000
7.88000 257.000
8.09000 265.000
8.30000 257.000
8.51000 266.000
8.72000 254.000
8.93000 271.000
9.14000 260.000
9.35000 268.000
9.56000 258.000
9.77000 258.000
9.98000 252.000
10.19000 260.000
10.40000 238.000
10.61000 279.000
10.82000 285.000
11.03000 271.000
11.24000 254.000
11.45000 248.000
11.66000 248.000
11.87000 356.000
12.08000 746.000
12.29000 301.000
12.50000 285.000
12.71000 252.000
12.92000 241.000
13.13000 261.000
13.34000 256.000
13.55000 277.000
13.76000 238.000
13.97000 256.000
14.18000 247.000
14.39000 277.000
14.60000 251.000
14.81000 267.000
15.02000 256.000
15.23000 260.000
15.44000 258.000
15.65000 285.000
15.86000 263.000
16.07000 246.000
16.28000 259.000
16.49000 263.000
16.70000 282.000
16.91000 291.000
17.12000 267.000
17.33000 272.000
17.54000 287.000
17.75000 312.000
17.96000 306.000
18.17000 318.000
18.38000 306.000
18.59000 293.000
18.80000 299.000
19.01000 319.000
19.22000 317.000
19.43000 292.000
19.64000 328.000
19.85000 303.000
20.06000 338.000
20.27000 287.000
20.48000 325.000
20.69000 356.000
20.90000 3379.000
21.11000 416.000
21.32000 361.000
21.53000 345.000
21.74000 347.000
21.95000 340.000
22.16000 386.000
22.37000 359.000
22.58000 370.000
22.79000 362.000
23.00000 337.000
23.21000 360.000
23.42000 377.000
23.63000 381.000
23.84000 399.000
24.05000 437.000
24.26000 1492.000
24.47000 575.000
24.68000 442.000
24.89000 468.000
25.10000 682.000
25.31000 675.000
25.52000 485.000
25.73000 473.000
25.94000 471.000
26.15000 428.000
26.36000 543.000
26.57000 557.000
26.78000 613.000
26.99000 750.000
27.20000 690.000
27.41000 701.000
27.62000 728.000
27.83000 1208.000
28.04000 3114.000
28.25000 894.000
28.46000 596.000
28.67000 504.000
28.88000 470.000
29.09000 430.000
29.30000 406.000
29.51000 373.000
29.72000 370.000
29.93000 339.000
30.14000 334.000
30.35000 302.000
30.56000 303.000
30.77000 315.000
30.98000 312.000
31.19000 291.000
31.40000 288.000
31.61000 302.000
31.82000 305.000
32.03000 373.000
32.24000 2713.000
32.45000 304.000
32.66000 337.000
32.87000 483.000
33.08000 454.000
33.29000 298.000
33.50000 277.000
33.71000 283.000
33.92000 269.000
34.13000 244.000
34.34000 260.000
34.55000 255.000
34.76000 281.000
34.97000 303.000
35.18000 541.000
35.39000 360.000
35.60000 285.000
35.81000 219.000
36.02000 228.000
36.23000 218.000
36.44000 219.000
36.65000 487.000
36.86000 194.000
37.07000 168.000
37.28000 181.000
37.49000 186.000
37.70000 178.000
37.91000 180.000
38.12000 194.000
38.33000 184.000
38.54000 189.000
38.75000 191.000
38.96000 181.000
39.17000 193.000
39.38000 174.000
39.59000 207.000
39.80000 192.000
40.01000 204.000
40.22000 178.000
40.43000 198.000
40.64000 172.000
40.85000 198.000
41.06000 244.000
41.27000 384.000
41.48000 284.000
41.69000 217.000
41.90000 214.000
42.11000 181.000
42.32000 175.000
42.53000 220.000
42.74000 199.000
42.95000 213.000
43.16000 193.000
43.37000 194.000
43.58000 194.000
43.79000 191.000
44.00000 223.000
44.21000 214.000
44.42000 902.000
44.63000 337.000
44.84000 306.000
45.05000 391.000
45.26000 280.000
45.47000 188.000
45.68000 178.000
45.89000 174.000
46.10000 192.000
46.31000 260.000
46.52000 182.000
46.73000 178.000
46.94000 172.000
47.15000 170.000
47.36000 177.000
47.57000 170.000
47.78000 146.000
47.99000 156.000
48.20000 184.000
48.41000 156.000
48.62000 162.000
48.83000 155.000
49.04000 152.000
49.25000 171.000
49.46000 212.000
49.67000 293.000
49.88000 261.000
50.09000 510.000
50.30000 341.000
50.51000 244.000
50.72000 188.000
50.93000 178.000
51.14000 201.000
51.35000 205.000
51.56000 283.000
51.77000 409.000
51.98000 239.000
52.19000 188.000
52.40000 174.000
52.61000 168.000
52.82000 192.000
53.03000 168.000
53.24000 186.000
53.45000 177.000
53.66000 179.000
53.87000 158.000
54.08000 169.000
54.29000 311.000
54.50000 262.000
54.71000 176.000
54.92000 159.000
55.13000 161.000
55.34000 149.000
55.55000 176.000
55.76000 149.000
55.97000 186.000
56.18000 215.000
56.39000 265.000
56.60000 208.000
56.81000 170.000
57.02000 168.000
57.23000 182.000
57.44000 289.000
57.65000 175.000
57.86000 202.000
58.07000 183.000
58.28000 168.000
58.49000 166.000
58.70000 150.000
58.91000 157.000
59.12000 149.000
59.33000 154.000
59.54000 176.000
59.75000 146.000
59.96000 159.000
60.17000 151.000
60.38000 155.000
60.59000 164.000
60.80000 185.000
61.01000 162.000
61.22000 166.000
61.43000 136.000
61.64000 159.000
61.85000 176.000
61.98500 180.000