Folder: phd-thesis/ISoD/xrd_data (part 2)

File: HSC005III_range_1.xy
2.00000 378.000
2.21000 292.000
2.42000 265.000
2.63000 240.000
2.84000 175.000
3.05000 198.000
3.26000 196.000
3.47000 185.000
3.68000 193.000
3.89000 176.000
4.10000 193.000
4.31000 174.000
4.52000 173.000
4.73000 180.000
4.94000 168.000
5.15000 189.000
5.36000 189.000
5.57000 181.000
5.78000 175.000
5.99000 177.000
6.20000 178.000
6.41000 175.000
6.62000 171.000
6.83000 178.000
7.04000 182.000
7.25000 161.000
7.46000 193.000
7.67000 187.000
7.88000 184.000
8.09000 182.000
8.30000 161.000
8.51000 169.000
8.72000 185.000
8.93000 159.000
9.14000 184.000
9.35000 158.000
9.56000 159.000
9.77000 168.000
9.98000 178.000
10.19000 189.000
10.40000 176.000
10.61000 162.000
10.82000 168.000
11.03000 180.000
11.24000 196.000
11.45000 160.000
11.66000 162.000
11.87000 367.000
12.08000 968.000
12.29000 232.000
12.50000 208.000
12.71000 204.000
12.92000 207.000
13.13000 181.000
13.34000 188.000
13.55000 182.000
13.76000 183.000
13.97000 196.000
14.18000 194.000
14.39000 180.000
14.60000 202.000
14.81000 185.000
15.02000 172.000
15.23000 206.000
15.44000 191.000
15.65000 192.000
15.86000 179.000
16.07000 196.000
16.28000 181.000
16.49000 194.000
16.70000 213.000
16.91000 220.000
17.12000 216.000
17.33000 226.000
17.54000 228.000
17.75000 248.000
17.96000 353.000
18.17000 288.000
18.38000 260.000
18.59000 257.000
18.80000 230.000
19.01000 248.000
19.22000 218.000
19.43000 221.000
19.64000 225.000
19.85000 242.000
20.06000 242.000
20.27000 246.000
20.48000 246.000
20.69000 304.000
20.90000 478.000
21.11000 312.000
21.32000 278.000
21.53000 274.000
21.74000 267.000
21.95000 244.000
22.16000 263.000
22.37000 270.000
22.58000 278.000
22.79000 282.000
23.00000 257.000
23.21000 299.000
23.42000 287.000
23.63000 274.000
23.84000 267.000
24.05000 281.000
24.26000 400.000
24.47000 316.000
24.68000 405.000
24.89000 518.000
25.10000 417.000
25.31000 354.000
25.52000 343.000
25.73000 319.000
25.94000 330.000
26.15000 330.000
26.36000 325.000
26.57000 402.000
26.78000 520.000
26.99000 870.000
27.20000 712.000
27.41000 627.000
27.62000 890.000
27.83000 773.000
28.04000 536.000
28.25000 406.000
28.46000 353.000
28.67000 334.000
28.88000 334.000
29.09000 311.000
29.30000 335.000
29.51000 405.000
29.72000 398.000
29.93000 328.000
30.14000 263.000
30.35000 224.000
30.56000 227.000
30.77000 220.000
30.98000 223.000
31.19000 212.000
31.40000 199.000
31.61000 184.000
31.82000 213.000
32.03000 334.000
32.24000 361.000
32.45000 221.000
32.66000 192.000
32.87000 182.000
33.08000 192.000
33.29000 171.000
33.50000 194.000
33.71000 172.000
33.92000 175.000
34.13000 196.000
34.34000 205.000
34.55000 166.000
34.76000 197.000
34.97000 208.000
35.18000 181.000
35.39000 154.000
35.60000 138.000
35.81000 156.000
36.02000 154.000
36.23000 126.000
36.44000 140.000
36.65000 141.000
36.86000 142.000
37.07000 127.000
37.28000 137.000
37.49000 131.000
37.70000 127.000
37.91000 124.000
38.12000 131.000
38.33000 129.000
38.54000 128.000
38.75000 117.000
38.96000 129.000
39.17000 137.000
39.38000 146.000
39.59000 139.000
39.80000 150.000
40.01000 155.000
40.22000 138.000
40.43000 129.000
40.64000 107.000
40.85000 131.000
41.06000 124.000
41.27000 127.000
41.48000 109.000
41.69000 127.000
41.90000 135.000
42.11000 146.000
42.32000 163.000
42.53000 169.000
42.74000 172.000
42.95000 146.000
43.16000 140.000
43.37000 141.000
43.58000 131.000
43.79000 144.000
44.00000 131.000
44.21000 148.000
44.42000 207.000
44.63000 219.000
44.84000 259.000
45.05000 213.000
45.26000 161.000
45.47000 125.000
45.68000 131.000
45.89000 116.000
46.10000 106.000
46.31000 123.000
46.52000 121.000
46.73000 132.000
46.94000 126.000
47.15000 116.000
47.36000 95.000
47.57000 125.000
47.78000 99.000
47.99000 113.000
48.20000 91.000
48.41000 106.000
48.62000 101.000
48.83000 104.000
49.04000 112.000
49.25000 121.000
49.46000 106.000
49.67000 106.000
49.88000 98.000
50.09000 93.000
50.30000 96.000
50.51000 114.000
50.72000 106.000
50.93000 119.000
51.14000 101.000
51.35000 118.000
51.56000 95.000
51.77000 105.000
51.98000 96.000
52.19000 112.000
52.40000 95.000
52.61000 97.000
52.82000 97.000
53.03000 96.000
53.24000 107.000
53.45000 101.000
53.66000 113.000
53.87000 92.000
54.08000 94.000
54.29000 105.000
54.50000 101.000
54.71000 98.000
54.92000 113.000
55.13000 94.000
55.34000 99.000
55.55000 106.000
55.76000 111.000
55.97000 132.000
56.18000 137.000
56.39000 146.000
56.60000 122.000
56.81000 109.000
57.02000 124.000
57.23000 124.000
57.44000 119.000
57.65000 90.000
57.86000 92.000
58.07000 91.000
58.28000 85.000
58.49000 102.000
58.70000 87.000
58.91000 98.000
59.12000 96.000
59.33000 102.000
59.54000 86.000
59.75000 94.000
59.96000 102.000
60.17000 104.000
60.38000 91.000
60.59000 85.000
60.80000 87.000
61.01000 101.000
61.22000 72.000
61.43000 80.000
61.64000 92.000
61.85000 91.000
61.98500 97.000

File: HSC005III_range_2.xy
2.00000 360.000
2.21000 269.000
2.42000 265.000
2.63000 219.000
2.84000 233.000
3.05000 181.000
3.26000 187.000
3.47000 175.000
3.68000 188.000
3.89000 175.000
4.10000 163.000
4.31000 169.000
4.52000 165.000
4.73000 187.000
4.94000 169.000
5.15000 191.000
5.36000 192.000
5.57000 168.000
5.78000 193.000
5.99000 189.000
6.20000 164.000
6.41000 177.000
6.62000 167.000
6.83000 175.000
7.04000 156.000
7.25000 173.000
7.46000 160.000
7.67000 184.000
7.88000 163.000
8.09000 172.000
8.30000 166.000
8.51000 166.000
8.72000 169.000
8.93000 167.000
9.14000 179.000
9.35000 187.000
9.56000 159.000
9.77000 174.000
9.98000 165.000
10.19000 175.000
10.40000 154.000
10.61000 172.000
10.82000 167.000
11.03000 173.000
11.24000 164.000
11.45000 173.000
11.66000 188.000
11.87000 345.000
12.08000 947.000
12.29000 232.000
12.50000 223.000
12.71000 190.000
12.92000 196.000
13.13000 187.000
13.34000 179.000
13.55000 164.000
13.76000 206.000
13.97000 164.000
14.18000 160.000
14.39000 183.000
14.60000 196.000
14.81000 181.000
15.02000 179.000
15.23000 208.000
15.44000 188.000
15.65000 186.000
15.86000 207.000
16.07000 189.000
16.28000 180.000
16.49000 203.000
16.70000 199.000
16.91000 195.000
17.12000 200.000
17.33000 220.000
17.54000 214.000
17.75000 247.000
17.96000 343.000
18.17000 280.000
18.38000 241.000
18.59000 225.000
18.80000 213.000
19.01000 215.000
19.22000 240.000
19.43000 227.000
19.64000 219.000
19.85000 216.000
20.06000 216.000
20.27000 223.000
20.48000 259.000
20.69000 310.000
20.90000 473.000
21.11000 290.000
21.32000 250.000
21.53000 257.000
21.74000 253.000
21.95000 252.000
22.16000 247.000
22.37000 270.000
22.58000 270.000
22.79000 263.000
23.00000 282.000
23.21000 279.000
23.42000 266.000
23.63000 257.000
23.84000 300.000
24.05000 308.000
24.26000 395.000
24.47000 320.000
24.68000 385.000
24.89000 484.000
25.10000 410.000
25.31000 303.000
25.52000 315.000
25.73000 300.000
25.94000 298.000
26.15000 332.000
26.36000 346.000
26.57000 392.000
26.78000 521.000
26.99000 897.000
27.20000 696.000
27.41000 665.000
27.62000 879.000
27.83000 821.000
28.04000 486.000
28.25000 379.000
28.46000 320.000
28.67000 299.000
28.88000 296.000
29.09000 300.000
29.30000 318.000
29.51000 367.000
29.72000 388.000
29.93000 322.000
30.14000 262.000
30.35000 228.000
30.56000 217.000
30.77000 207.000
30.98000 217.000
31.19000 198.000
31.40000 188.000
31.61000 214.000
31.82000 192.000
32.03000 349.000
32.24000 331.000
32.45000 225.000
32.66000 192.000
32.87000 189.000
33.08000 203.000
33.29000 184.000
33.50000 168.000
33.71000 175.000
33.92000 167.000
34.13000 158.000
34.34000 157.000
34.55000 182.000
34.76000 193.000
34.97000 199.000
35.18000 203.000
35.39000 160.000
35.60000 146.000
35.81000 164.000
36.02000 139.000
36.23000 141.000
36.44000 149.000
36.65000 157.000
36.86000 121.000
37.07000 122.000
37.28000 124.000
37.49000 125.000
37.70000 125.000
37.91000 119.000
38.12000 134.000
38.33000 115.000
38.54000 114.000
38.75000 120.000
38.96000 138.000
39.17000 113.000
39.38000 126.000
39.59000 152.000
39.80000 167.000
40.01000 147.000
40.22000 134.000
40.43000 124.000
40.64000 117.000
40.85000 130.000
41.06000 124.000
41.27000 147.000
41.48000 122.000
41.69000 127.000
41.90000 117.000
42.11000 123.000
42.32000 188.000
42.53000 153.000
42.74000 177.000
42.95000 142.000
43.16000 132.000
43.37000 129.000
43.58000 134.000
43.79000 125.000
44.00000 152.000
44.21000 162.000
44.42000 205.000
44.63000 216.000
44.84000 230.000
45.05000 191.000
45.26000 136.000
45.47000 126.000
45.68000 106.000
45.89000 121.000
46.10000 131.000
46.31000 124.000
46.52000 128.000
46.73000 135.000
46.94000 107.000
47.15000 113.000
47.36000 115.000
47.57000 111.000
47.78000 107.000
47.99000 103.000
48.20000 105.000
48.41000 99.000
48.62000 103.000
48.83000 113.000
49.04000 104.000
49.25000 99.000
49.46000 106.000
49.67000 102.000
49.88000 103.000
50.09000 100.000
50.30000 94.000
50.51000 100.000
50.72000 94.000
50.93000 116.000
51.14000 111.000
51.35000 112.000
51.56000 97.000
51.77000 101.000
51.98000 104.000
52.19000 88.000
52.40000 93.000
52.61000 115.000
52.82000 104.000
53.03000 103.000
53.24000 100.000
53.45000 92.000
53.66000 91.000
53.87000 102.000
54.08000 109.000
54.29000 111.000
54.50000 113.000
54.71000 93.000
54.92000 94.000
55.13000 95.000
55.34000 96.000
55.55000 110.000
55.76000 108.000
55.97000 143.000
56.18000 141.000
56.39000 114.000
56.60000 127.000
56.81000 118.000
57.02000 115.000
57.23000 124.000
57.44000 109.000
57.65000 116.000
57.86000 92.000
58.07000 89.000
58.28000 79.000
58.49000 94.000
58.70000 100.000
58.91000 91.000
59.12000 85.000
59.33000 105.000
59.54000 91.000
59.75000 86.000
59.96000 91.000
60.17000 92.000
60.38000 97.000
60.59000 98.000
60.80000 91.000
61.01000 84.000
61.22000 86.000
61.43000 98.000
61.64000 92.000
61.85000 97.000
61.98500 78.000

File: HSC005III_ranges_combined.xy
2.0 738.0
2.21 561.0
2.42 530.0
2.63 459.0
2.84 408.0
3.05 379.0
3.26 383.0
3.47 360.0
3.68 381.0
3.89 351.0
4.1 356.0
4.31 343.0
4.52 338.0
4.73 367.0
4.94 337.0
5.15 380.0
5.36 381.0
5.57 349.0
5.78 368.0
5.99 366.0
6.2 342.0
6.41 352.0
6.62 338.0
6.83 353.0
7.04 338.0
7.25 334.0
7.46 353.0
7.67 371.0
7.88 347.0
8.09 354.0
8.3 327.0
8.51 335.0
8.72 354.0
8.93 326.0
9.14 363.0
9.35 345.0
9.56 318.0
9.77 342.0
9.98 343.0
10.19 364.0
10.4 330.0
10.61 334.0
10.82 335.0
11.03 353.0
11.24 360.0
11.45 333.0
11.66 350.0
11.87 712.0
12.08 1915.0
12.29 464.0
12.5 431.0
12.71 394.0
12.92 403.0
13.13 368.0
13.34 367.0
13.55 346.0
13.76 389.0
13.97 360.0
14.18 354.0
14.39 363.0
14.6 398.0
14.81 366.0
15.02 351.0
15.23 414.0
15.44 379.0
15.65 378.0
15.86 386.0
16.07 385.0
16.28 361.0
16.49 397.0
16.7 412.0
16.91 415.0
17.12 416.0
17.33 446.0
17.54 442.0
17.75 495.0
17.96 696.0
18.17 568.0
18.38 501.0
18.59 482.0
18.8 443.0
19.01 463.0
19.22 458.0
19.43 448.0
19.64 444.0
19.85 458.0
20.06 458.0
20.27 469.0
20.48 505.0
20.69 614.0
20.9 951.0
21.11 602.0
21.32 528.0
21.53 531.0
21.74 520.0
21.95 496.0
22.16 510.0
22.37 540.0
22.58 548.0
22.79 545.0
23.0 539.0
23.21 578.0
23.42 553.0
23.63 531.0
23.84 567.0
24.05 589.0
24.26 795.0
24.47 636.0
24.68 790.0
24.89 1002.0
25.1 827.0
25.31 657.0
25.52 658.0
25.73 619.0
25.94 628.0
26.15 662.0
26.36 671.0
26.57 794.0
26.78 1041.0
26.99 1767.0
27.2 1408.0
27.41 1292.0
27.62 1769.0
27.83 1594.0
28.04 1022.0
28.25 785.0
28.46 673.0
28.67 633.0
28.88 630.0
29.09 611.0
29.3 653.0
29.51 772.0
29.72 786.0
29.93 650.0
30.14 525.0
30.35 452.0
30.56 444.0
30.77 427.0
30.98 440.0
31.19 410.0
31.4 387.0
31.61 398.0
31.82 405.0
32.03 683.0
32.24 692.0
32.45 446.0
32.66 384.0
32.87 371.0
33.08 395.0
33.29 355.0
33.5 362.0
33.71 347.0
33.92 342.0
34.13 354.0
34.34 362.0
34.55 348.0
34.76 390.0
34.97 407.0
35.18 384.0
35.39 314.0
35.6 284.0
35.81 320.0
36.02 293.0
36.23 267.0
36.44 289.0
36.65 298.0
36.86 263.0
37.07 249.0
37.28 261.0
37.49 256.0
37.7 252.0
37.91 243.0
38.12 265.0
38.33 244.0
38.54 242.0
38.75 237.0
38.96 267.0
39.17 250.0
39.38 272.0
39.59 291.0
39.8 317.0
40.01 302.0
40.22 272.0
40.43 253.0
40.64 224.0
40.85 261.0
41.06 248.0
41.27 274.0
41.48 231.0
41.69 254.0
41.9 252.0
42.11 269.0
42.32 351.0
42.53 322.0
42.74 349.0
42.95 288.0
43.16 272.0
43.37 270.0
43.58 265.0
43.79 269.0
44.0 283.0
44.21 310.0
44.42 412.0
44.63 435.0
44.84 489.0
45.05 404.0
45.26 297.0
45.47 251.0
45.68 237.0
45.89 237.0
46.1 237.0
46.31 247.0
46.52 249.0
46.73 267.0
46.94 233.0
47.15 229.0
47.36 210.0
47.57 236.0
47.78 206.0
47.99 216.0
48.2 196.0
48.41 205.0
48.62 204.0
48.83 217.0
49.04 216.0
49.25 220.0
49.46 212.0
49.67 208.0
49.88 201.0
50.09 193.0
50.3 190.0
50.51 214.0
50.72 200.0
50.93 235.0
51.14 212.0
51.35 230.0
51.56 192.0
51.77 206.0
51.98 200.0
52.19 200.0
52.4 188.0
52.61 212.0
52.82 201.0
53.03 199.0
53.24 207.0
53.45 193.0
53.66 204.0
53.87 194.0
54.08 203.0
54.29 216.0
54.5 214.0
54.71 191.0
54.92 207.0
55.13 189.0
55.34 195.0
55.55 216.0
55.76 219.0
55.97 275.0
56.18 278.0
56.39 260.0
56.6 249.0
56.81 227.0
57.02 239.0
57.23 248.0
57.44 228.0
57.65 206.0
57.86 184.0
58.07 180.0
58.28 164.0
58.49 196.0
58.7 187.0
58.91 189.0
59.12 181.0
59.33 207.0
59.54 177.0
59.75 180.0
59.96 193.0
60.17 196.0
60.38 188.0
60.59 183.0
60.8 178.0
61.01 185.0
61.22 158.0
61.43 178.0
61.64 184.0
61.85 188.0
61.985 175.0

File: HSC005IIIcombined_range_1.xy
2.00000 738.000
2.21000 561.000
2.42000 530.000
2.63000 459.000
2.84000 408.000
3.05000 379.000
3.26000 383.000
3.47000 360.000
3.68000 381.000
3.89000 351.000
4.10000 356.000
4.31000 343.000
4.52000 338.000
4.73000 367.000
4.94000 337.000
5.15000 380.000
5.36000 381.000
5.57000 349.000
5.78000 368.000
5.99000 366.000
6.20000 342.000
6.41000 352.000
6.62000 338.000
6.83000 353.000
7.04000 338.000
7.25000 334.000
7.46000 353.000
7.67000 371.000
7.88000 347.000
8.09000 354.000
8.30000 327.000
8.51000 335.000
8.72000 354.000
8.93000 326.000
9.14000 363.000
9.35000 345.000
9.56000 318.000
9.77000 342.000
9.98000 343.000
10.19000 364.000
10.40000 330.000
10.61000 334.000
10.82000 335.000
11.03000 353.000
11.24000 360.000
11.45000 333.000
11.66000 350.000
11.87000 712.000
12.08000 1915.000
12.29000 464.000
12.50000 431.000
12.71000 394.000
12.92000 403.000
13.13000 368.000
13.34000 367.000
13.55000 346.000
13.76000 389.000
13.97000 360.000
14.18000 354.000
14.39000 363.000
14.60000 398.000
14.81000 366.000
15.02000 351.000
15.23000 414.000
15.44000 379.000
15.65000 378.000
15.86000 386.000
16.07000 385.000
16.28000 361.000
16.49000 397.000
16.70000 412.000
16.91000 415.000
17.12000 416.000
17.33000 446.000
17.54000 442.000
17.75000 495.000
17.96000 696.000
18.17000 568.000
18.38000 501.000
18.59000 482.000
18.80000 443.000
19.01000 463.000
19.22000 458.000
19.43000 448.000
19.64000 444.000
19.85000 458.000
20.06000 458.000
20.27000 469.000
20.48000 505.000
20.69000 614.000
20.90000 951.000
21.11000 602.000
21.32000 528.000
21.53000 531.000
21.74000 520.000
21.95000 496.000
22.16000 510.000
22.37000 540.000
22.58000 548.000
22.79000 545.000
23.00000 539.000
23.21000 578.000
23.42000 553.000
23.63000 531.000
23.84000 567.000
24.05000 589.000
24.26000 795.000
24.47000 636.000
24.68000 790.000
24.89000 1002.000
25.10000 827.000
25.31000 657.000
25.52000 658.000
25.73000 619.000
25.94000 628.000
26.15000 662.000
26.36000 671.000
26.57000 794.000
26.78000 1041.000
26.99000 1767.000
27.20000 1408.000
27.41000 1292.000
27.62000 1769.000
27.83000 1594.000
28.04000 1022.000
28.25000 785.000
28.46000 673.000
28.67000 633.000
28.88000 630.000
29.09000 611.000
29.30000 653.000
29.51000 772.000
29.72000 786.000
29.93000 650.000
30.14000 525.000
30.35000 452.000
30.56000 444.000
30.77000 427.000
30.98000 440.000
31.19000 410.000
31.40000 387.000
31.61000 398.000
31.82000 405.000
32.03000 683.000
32.24000 692.000
32.45000 446.000
32.66000 384.000
32.87000 371.000
33.08000 395.000
33.29000 355.000
33.50000 362.000
33.71000 347.000
33.92000 342.000
34.13000 354.000
34.34000 362.000
34.55000 348.000
34.76000 390.000
34.97000 407.000
35.18000 384.000
35.39000 314.000
35.60000 284.000
35.81000 320.000
36.02000 293.000
36.23000 267.000
36.44000 289.000
36.65000 298.000
36.86000 263.000
37.07000 249.000
37.28000 261.000
37.49000 256.000
37.70000 252.000
37.91000 243.000
38.12000 265.000
38.33000 244.000
38.54000 242.000
38.75000 237.000
38.96000 267.000
39.17000 250.000
39.38000 272.000
39.59000 291.000
39.80000 317.000
40.01000 302.000
40.22000 272.000
40.43000 253.000
40.64000 224.000
40.85000 261.000
41.06000 248.000
41.27000 274.000
41.48000 231.000
41.69000 254.000
41.90000 252.000
42.11000 269.000
42.32000 351.000
42.53000 322.000
42.74000 349.000
42.95000 288.000
43.16000 272.000
43.37000 270.000
43.58000 265.000
43.79000 269.000
44.00000 283.000
44.21000 310.000
44.42000 412.000
44.63000 435.000
44.84000 489.000
45.05000 404.000
45.26000 297.000
45.47000 251.000
45.68000 237.000
45.89000 237.000
46.10000 237.000
46.31000 247.000
46.52000 249.000
46.73000 267.000
46.94000 233.000
47.15000 229.000
47.36000 210.000
47.57000 236.000
47.78000 206.000
47.99000 216.000
48.20000 196.000
48.41000 205.000
48.62000 204.000
48.83000 217.000
49.04000 216.000
49.25000 220.000
49.46000 212.000
49.67000 208.000
49.88000 201.000
50.09000 193.000
50.30000 190.000
50.51000 214.000
50.72000 200.000
50.93000 235.000
51.14000 212.000
51.35000 230.000
51.56000 192.000
51.77000 206.000
51.98000 200.000
52.19000 200.000
52.40000 188.000
52.61000 212.000
52.82000 201.000
53.03000 199.000
53.24000 207.000
53.45000 193.000
53.66000 204.000
53.87000 194.000
54.08000 203.000
54.29000 216.000
54.50000 214.000
54.71000 191.000
54.92000 207.000
55.13000 189.000
55.34000 195.000
55.55000 216.000
55.76000 219.000
55.97000 275.000
56.18000 278.000
56.39000 260.000
56.60000 249.000
56.81000 227.000
57.02000 239.000
57.23000 248.000
57.44000 228.000
57.65000 206.000
57.86000 184.000
58.07000 180.000
58.28000 164.000
58.49000 196.000
58.70000 187.000
58.91000 189.000
59.12000 181.000
59.33000 207.000
59.54000 177.000
59.75000 180.000
59.96000 193.000
60.17000 196.000
60.38000 188.000
60.59000 183.000
60.80000 178.000
61.01000 185.000
61.22000 158.000
61.43000 178.000
61.64000 184.000
61.85000 188.000
61.98500 175.000

File: HSC005IIIcombined_ranges_combined.xy
2.0 1098.0
2.21 830.0
2.42 795.0
2.63 678.0
2.84 641.0
3.05 560.0
3.26 570.0
3.47 535.0
3.68 569.0
3.89 526.0
4.1 519.0
4.31 512.0
4.52 503.0
4.73 554.0
4.94 506.0
5.15 571.0
5.36 573.0
5.57 517.0
5.78 561.0
5.99 555.0
6.2 506.0
6.41 529.0
6.62 505.0
6.83 528.0
7.04 494.0
7.25 507.0
7.46 513.0
7.67 555.0
7.88 510.0
8.09 526.0
8.3 493.0
8.51 501.0
8.72 523.0
8.93 493.0
9.14 542.0
9.35 532.0
9.56 477.0
9.77 516.0
9.98 508.0
10.19 539.0
10.4 484.0
10.61 506.0
10.82 502.0
11.03 526.0
11.24 524.0
11.45 506.0
11.66 538.0
11.87 1057.0
12.08 2862.0
12.29 696.0
12.5 654.0
12.71 584.0
12.92 599.0
13.13 555.0
13.34 546.0
13.55 510.0
13.76 595.0
13.97 524.0
14.18 514.0
14.39 546.0
14.6 594.0
14.81 547.0
15.02 530.0
15.23 622.0
15.44 567.0
15.65 564.0
15.86 593.0
16.07 574.0
16.28 541.0
16.49 600.0
16.7 611.0
16.91 610.0
17.12 616.0
17.33 666.0
17.54 656.0
17.75 742.0
17.96 1039.0
18.17 848.0
18.38 742.0
18.59 707.0
18.8 656.0
19.01 678.0
19.22 698.0
19.43 675.0
19.64 663.0
19.85 674.0
20.06 674.0
20.27 692.0
20.48 764.0
20.69 924.0
20.9 1424.0
21.11 892.0
21.32 778.0
21.53 788.0
21.74 773.0
21.95 748.0
22.16 757.0
22.37 810.0
22.58 818.0
22.79 808.0
23.0 821.0
23.21 857.0
23.42 819.0
23.63 788.0
23.84 867.0
24.05 897.0
24.26 1190.0
24.47 956.0
24.68 1175.0
24.89 1486.0
25.1 1237.0
25.31 960.0
25.52 973.0
25.73 919.0
25.94 926.0
26.15 994.0
26.36 1017.0
26.57 1186.0
26.78 1562.0
26.99 2664.0
27.2 2104.0
27.41 1957.0
27.62 2648.0
27.83 2415.0
28.04 1508.0
28.25 1164.0
28.46 993.0
28.67 932.0
28.88 926.0
29.09 911.0
29.3 971.0
29.51 1139.0
29.72 1174.0
29.93 972.0
30.14 787.0
30.35 680.0
30.56 661.0
30.77 634.0
30.98 657.0
31.19 608.0
31.4 575.0
31.61 612.0
31.82 597.0
32.03 1032.0
32.24 1023.0
32.45 671.0
32.66 576.0
32.87 560.0
33.08 598.0
33.29 539.0
33.5 530.0
33.71 522.0
33.92 509.0
34.13 512.0
34.34 519.0
34.55 530.0
34.76 583.0
34.97 606.0
35.18 587.0
35.39 474.0
35.6 430.0
35.81 484.0
36.02 432.0
36.23 408.0
36.44 438.0
36.65 455.0
36.86 384.0
37.07 371.0
37.28 385.0
37.49 381.0
37.7 377.0
37.91 362.0
38.12 399.0
38.33 359.0
38.54 356.0
38.75 357.0
38.96 405.0
39.17 363.0
39.38 398.0
39.59 443.0
39.8 484.0
40.01 449.0
40.22 406.0
40.43 377.0
40.64 341.0
40.85 391.0
41.06 372.0
41.27 421.0
41.48 353.0
41.69 381.0
41.9 369.0
42.11 392.0
42.32 539.0
42.53 475.0
42.74 526.0
42.95 430.0
43.16 404.0
43.37 399.0
43.58 399.0
43.79 394.0
44.0 435.0
44.21 472.0
44.42 617.0
44.63 651.0
44.84 719.0
45.05 595.0
45.26 433.0
45.47 377.0
45.68 343.0
45.89 358.0
46.1 368.0
46.31 371.0
46.52 377.0
46.73 402.0
46.94 340.0
47.15 342.0
47.36 325.0
47.57 347.0
47.78 313.0
47.99 319.0
48.2 301.0
48.41 304.0
48.62 307.0
48.83 330.0
49.04 320.0
49.25 319.0
49.46 318.0
49.67 310.0
49.88 304.0
50.09 293.0
50.3 284.0
50.51 314.0
50.72 294.0
50.93 351.0
51.14 323.0
51.35 342.0
51.56 289.0
51.77 307.0
51.98 304.0
52.19 288.0
52.4 281.0
52.61 327.0
52.82 305.0
53.03 302.0
53.24 307.0
53.45 285.0
53.66 295.0
53.87 296.0
54.08 312.0
54.29 327.0
54.5 327.0
54.71 284.0
54.92 301.0
55.13 284.0
55.34 291.0
55.55 326.0
55.76 327.0
55.97 418.0
56.18 419.0
56.39 374.0
56.6 376.0
56.81 345.0
57.02 354.0
57.23 372.0
57.44 337.0
57.65 322.0
57.86 276.0
58.07 269.0
58.28 243.0
58.49 290.0
58.7 287.0
58.91 280.0
59.12 266.0
59.33 312.0
59.54 268.0
59.75 266.0
59.96 284.0
60.17 288.0
60.38 285.0
60.59 281.0
60.8 269.0
61.01 269.0
61.22 244.0
61.43 276.0
61.64 276.0
61.85 285.0
61.985 253.0