Folder: phd-thesis/ISoD/xrd_data (part 9)

File: HSC041.xy
2.00000 3.000
2.21000 2.000
2.42000 5.000
2.63000 3.000
2.84000 149.000
3.05000 255.000
3.26000 271.000
3.47000 265.000
3.68000 243.000
3.89000 238.000
4.10000 219.000
4.31000 250.000
4.52000 258.000
4.73000 261.000
4.94000 290.000
5.15000 279.000
5.36000 275.000
5.57000 307.000
5.78000 322.000
5.99000 442.000
6.20000 534.000
6.41000 318.000
6.62000 296.000
6.83000 294.000
7.04000 283.000
7.25000 312.000
7.46000 298.000
7.67000 327.000
7.88000 358.000
8.09000 368.000
8.30000 340.000
8.51000 314.000
8.72000 326.000
8.93000 300.000
9.14000 324.000
9.35000 313.000
9.56000 303.000
9.77000 330.000
9.98000 329.000
10.19000 328.000
10.40000 338.000
10.61000 666.000
10.82000 445.000
11.03000 1569.000
11.24000 344.000
11.45000 333.000
11.66000 323.000
11.87000 355.000
12.08000 399.000
12.29000 753.000
12.50000 372.000
12.71000 382.000
12.92000 400.000
13.13000 423.000
13.34000 409.000
13.55000 406.000
13.76000 379.000
13.97000 372.000
14.18000 371.000
14.39000 412.000
14.60000 416.000
14.81000 466.000
15.02000 401.000
15.23000 385.000
15.44000 408.000
15.65000 392.000
15.86000 405.000
16.07000 405.000
16.28000 375.000
16.49000 411.000
16.70000 413.000
16.91000 409.000
17.12000 399.000
17.33000 422.000
17.54000 514.000
17.75000 430.000
17.96000 399.000
18.17000 375.000
18.38000 410.000
18.59000 411.000
18.80000 358.000
19.01000 392.000
19.22000 391.000
19.43000 386.000
19.64000 410.000
19.85000 406.000
20.06000 384.000
20.27000 408.000
20.48000 375.000
20.69000 381.000
20.90000 341.000
21.11000 463.000
21.32000 419.000
21.53000 388.000
21.74000 383.000
21.95000 418.000
22.16000 397.000
22.37000 399.000
22.58000 387.000
22.79000 468.000
23.00000 381.000
23.21000 398.000
23.42000 412.000
23.63000 378.000
23.84000 399.000
24.05000 397.000
24.26000 414.000
24.47000 416.000
24.68000 434.000
24.89000 402.000
25.10000 407.000
25.31000 420.000
25.52000 664.000
25.73000 509.000
25.94000 460.000
26.15000 427.000
26.36000 483.000
26.57000 632.000
26.78000 588.000
26.99000 641.000
27.20000 903.000
27.41000 1257.000
27.62000 1765.000
27.83000 2006.000
28.04000 1759.000
28.25000 858.000
28.46000 537.000
28.67000 441.000
28.88000 444.000
29.09000 369.000
29.30000 384.000
29.51000 384.000
29.72000 370.000
29.93000 341.000
30.14000 370.000
30.35000 343.000
30.56000 362.000
30.77000 313.000
30.98000 338.000
31.19000 306.000
31.40000 293.000
31.61000 282.000
31.82000 289.000
32.03000 278.000
32.24000 299.000
32.45000 264.000
32.66000 236.000
32.87000 269.000
33.08000 252.000
33.29000 250.000
33.50000 309.000
33.71000 259.000
33.92000 250.000
34.13000 261.000
34.34000 281.000
34.55000 240.000
34.76000 237.000
34.97000 232.000
35.18000 221.000
35.39000 221.000
35.60000 226.000
35.81000 199.000
36.02000 198.000
36.23000 207.000
36.44000 190.000
36.65000 189.000
36.86000 174.000
37.07000 214.000
37.28000 203.000
37.49000 214.000
37.70000 168.000
37.91000 166.000
38.12000 173.000
38.33000 190.000
38.54000 172.000
38.75000 191.000
38.96000 185.000
39.17000 176.000
39.38000 225.000
39.59000 205.000
39.80000 182.000
40.01000 191.000
40.22000 169.000
40.43000 195.000
40.64000 200.000
40.85000 174.000
41.06000 206.000
41.27000 185.000
41.48000 181.000
41.69000 179.000
41.90000 199.000
42.11000 176.000
42.32000 210.000
42.53000 199.000
42.74000 202.000
42.95000 198.000
43.16000 207.000
43.37000 198.000
43.58000 182.000
43.79000 185.000
44.00000 213.000
44.21000 193.000
44.42000 203.000
44.63000 188.000
44.84000 183.000
45.05000 180.000
45.26000 202.000
45.47000 193.000
45.68000 177.000
45.89000 172.000
46.10000 202.000
46.31000 170.000
46.52000 169.000
46.73000 172.000
46.94000 161.000
47.15000 163.000
47.36000 171.000
47.57000 170.000
47.78000 144.000
47.99000 165.000
48.20000 151.000
48.41000 184.000
48.62000 161.000
48.83000 149.000
49.04000 162.000
49.25000 178.000
49.46000 151.000
49.67000 135.000
49.88000 139.000
50.09000 162.000
50.30000 155.000
50.51000 146.000
50.72000 160.000
50.93000 154.000
51.14000 156.000
51.35000 158.000
51.56000 168.000
51.77000 159.000
51.98000 161.000
52.19000 147.000
52.40000 179.000
52.61000 152.000
52.82000 152.000
53.03000 128.000
53.24000 163.000
53.45000 136.000
53.66000 150.000
53.87000 150.000
54.08000 174.000
54.29000 156.000
54.50000 150.000
54.71000 145.000
54.92000 161.000
55.13000 161.000
55.34000 145.000
55.55000 129.000
55.76000 135.000
55.97000 151.000
56.18000 161.000
56.39000 156.000
56.60000 148.000
56.81000 143.000
57.02000 174.000
57.23000 159.000
57.44000 180.000
57.65000 168.000
57.86000 164.000
58.07000 150.000
58.28000 150.000
58.49000 153.000
58.70000 140.000
58.91000 126.000
59.12000 125.000
59.33000 126.000
59.54000 129.000
59.75000 124.000
59.96000 112.000
60.17000 118.000
60.38000 110.000
60.59000 119.000
60.80000 143.000
61.01000 114.000
61.22000 113.000
61.43000 128.000
61.64000 112.000
61.85000 111.000
61.98500 119.000

File: HSC047.xy
2.00000 4.000
2.21000 6.000
2.42000 3.000
2.63000 4.000
2.84000 3.000
3.05000 5.000
3.26000 79.000
3.47000 291.000
3.68000 283.000
3.89000 286.000
4.10000 283.000
4.31000 303.000
4.52000 299.000
4.73000 294.000
4.94000 318.000
5.15000 328.000
5.36000 317.000
5.57000 311.000
5.78000 336.000
5.99000 336.000
6.20000 315.000
6.41000 344.000
6.62000 328.000
6.83000 323.000
7.04000 346.000
7.25000 350.000
7.46000 344.000
7.67000 360.000
7.88000 331.000
8.09000 345.000
8.30000 358.000
8.51000 332.000
8.72000 373.000
8.93000 345.000
9.14000 376.000
9.35000 336.000
9.56000 356.000
9.77000 373.000
9.98000 366.000
10.19000 389.000
10.40000 374.000
10.61000 418.000
10.82000 408.000
11.03000 385.000
11.24000 417.000
11.45000 425.000
11.66000 421.000
11.87000 424.000
12.08000 569.000
12.29000 1760.000
12.50000 977.000
12.71000 520.000
12.92000 473.000
13.13000 486.000
13.34000 567.000
13.55000 623.000
13.76000 1401.000
13.97000 492.000
14.18000 477.000
14.39000 482.000
14.60000 482.000
14.81000 433.000
15.02000 465.000
15.23000 446.000
15.44000 491.000
15.65000 477.000
15.86000 475.000
16.07000 498.000
16.28000 505.000
16.49000 570.000
16.70000 622.000
16.91000 558.000
17.12000 532.000
17.33000 514.000
17.54000 563.000
17.75000 532.000
17.96000 550.000
18.17000 563.000
18.38000 586.000
18.59000 579.000
18.80000 532.000
19.01000 568.000
19.22000 647.000
19.43000 653.000
19.64000 798.000
19.85000 621.000
20.06000 610.000
20.27000 576.000
20.48000 598.000
20.69000 605.000
20.90000 641.000
21.11000 648.000
21.32000 625.000
21.53000 659.000
21.74000 847.000
21.95000 1062.000
22.16000 824.000
22.37000 689.000
22.58000 615.000
22.79000 654.000
23.00000 665.000
23.21000 702.000
23.42000 670.000
23.63000 688.000
23.84000 742.000
24.05000 693.000
24.26000 710.000
24.47000 711.000
24.68000 892.000
24.89000 957.000
25.10000 1576.000
25.31000 1520.000
25.52000 949.000
25.73000 1221.000
25.94000 906.000
26.15000 972.000
26.36000 967.000
26.57000 943.000
26.78000 962.000
26.99000 1287.000
27.20000 1500.000
27.41000 1080.000
27.62000 1134.000
27.83000 1550.000
28.04000 839.000
28.25000 784.000
28.46000 737.000
28.67000 731.000
28.88000 701.000
29.09000 634.000
29.30000 691.000
29.51000 620.000
29.72000 605.000
29.93000 645.000
30.14000 733.000
30.35000 735.000
30.56000 638.000
30.77000 654.000
30.98000 600.000
31.19000 568.000
31.40000 492.000
31.61000 533.000
31.82000 528.000
32.03000 505.000
32.24000 492.000
32.45000 468.000
32.66000 473.000
32.87000 423.000
33.08000 449.000
33.29000 433.000
33.50000 422.000
33.71000 426.000
33.92000 446.000
34.13000 393.000
34.34000 402.000
34.55000 414.000
34.76000 405.000
34.97000 405.000
35.18000 424.000
35.39000 391.000
35.60000 361.000
35.81000 374.000
36.02000 393.000
36.23000 308.000
36.44000 318.000
36.65000 329.000
36.86000 318.000
37.07000 351.000
37.28000 294.000
37.49000 325.000
37.70000 316.000
37.91000 294.000
38.12000 305.000
38.33000 357.000
38.54000 318.000
38.75000 289.000
38.96000 310.000
39.17000 312.000
39.38000 339.000
39.59000 308.000
39.80000 283.000
40.01000 296.000
40.22000 324.000
40.43000 310.000
40.64000 314.000
40.85000 307.000
41.06000 303.000
41.27000 306.000
41.48000 316.000
41.69000 311.000
41.90000 337.000
42.11000 346.000
42.32000 300.000
42.53000 255.000
42.74000 315.000
42.95000 302.000
43.16000 294.000
43.37000 295.000
43.58000 282.000
43.79000 301.000
44.00000 275.000
44.21000 317.000
44.42000 290.000
44.63000 305.000
44.84000 293.000
45.05000 294.000
45.26000 291.000
45.47000 284.000
45.68000 259.000
45.89000 296.000
46.10000 268.000
46.31000 257.000
46.52000 246.000
46.73000 265.000
46.94000 289.000
47.15000 280.000
47.36000 301.000
47.57000 268.000
47.78000 241.000
47.99000 264.000
48.20000 275.000
48.41000 286.000
48.62000 271.000
48.83000 239.000
49.04000 278.000
49.25000 263.000
49.46000 256.000
49.67000 282.000
49.88000 245.000
50.09000 273.000
50.30000 249.000
50.51000 261.000
50.72000 257.000
50.93000 261.000
51.14000 229.000
51.35000 241.000
51.56000 260.000
51.77000 269.000
51.98000 264.000
52.19000 248.000
52.40000 241.000
52.61000 229.000
52.82000 265.000
53.03000 231.000
53.24000 271.000
53.45000 269.000
53.66000 252.000
53.87000 250.000
54.08000 266.000
54.29000 215.000
54.50000 216.000
54.71000 219.000
54.92000 251.000
55.13000 265.000
55.34000 238.000
55.55000 257.000
55.76000 231.000
55.97000 231.000
56.18000 243.000
56.39000 256.000
56.60000 258.000
56.81000 241.000
57.02000 243.000
57.23000 244.000
57.44000 252.000
57.65000 230.000
57.86000 234.000
58.07000 229.000
58.28000 221.000
58.49000 222.000
58.70000 205.000
58.91000 201.000
59.12000 216.000
59.33000 208.000
59.54000 193.000
59.75000 216.000
59.96000 224.000
60.17000 201.000
60.38000 201.000
60.59000 204.000
60.80000 209.000
61.01000 216.000
61.22000 200.000
61.43000 231.000
61.64000 206.000
61.85000 226.000
61.98500 186.000

File: HSC047_Sublimat.xy
2.00000 5.000
2.21000 0.000
2.42000 2.000
2.63000 1.000
2.84000 35.000
3.05000 111.000
3.26000 122.000
3.47000 140.000
3.68000 135.000
3.89000 175.000
4.10000 224.000
4.31000 219.000
4.52000 211.000
4.73000 222.000
4.94000 230.000
5.15000 263.000
5.36000 245.000
5.57000 238.000
5.78000 257.000
5.99000 252.000
6.20000 270.000
6.41000 278.000
6.62000 264.000
6.83000 261.000
7.04000 270.000
7.25000 271.000
7.46000 280.000
7.67000 295.000
7.88000 287.000
8.09000 286.000
8.30000 302.000
8.51000 292.000
8.72000 301.000
8.93000 318.000
9.14000 305.000
9.35000 317.000
9.56000 311.000
9.77000 269.000
9.98000 306.000
10.19000 319.000
10.40000 358.000
10.61000 299.000
10.82000 288.000
11.03000 298.000
11.24000 312.000
11.45000 295.000
11.66000 322.000
11.87000 317.000
12.08000 327.000
12.29000 431.000
12.50000 312.000
12.71000 347.000
12.92000 378.000
13.13000 2178.000
13.34000 318.000
13.55000 326.000
13.76000 313.000
13.97000 316.000
14.18000 331.000
14.39000 340.000
14.60000 306.000
14.81000 559.000
15.02000 355.000
15.23000 326.000
15.44000 338.000
15.65000 318.000
15.86000 339.000
16.07000 331.000
16.28000 321.000
16.49000 357.000
16.70000 311.000
16.91000 338.000
17.12000 349.000
17.33000 385.000
17.54000 639.000
17.75000 3456.000
17.96000 845.000
18.17000 380.000
18.38000 333.000
18.59000 338.000
18.80000 347.000
19.01000 344.000
19.22000 319.000
19.43000 350.000
19.64000 361.000
19.85000 350.000
20.06000 342.000
20.27000 332.000
20.48000 367.000
20.69000 361.000
20.90000 360.000
21.11000 337.000
21.32000 396.000
21.53000 796.000
21.74000 1013.000
21.95000 572.000
22.16000 691.000
22.37000 351.000
22.58000 341.000
22.79000 338.000
23.00000 356.000
23.21000 367.000
23.42000 332.000
23.63000 347.000
23.84000 335.000
24.05000 354.000
24.26000 329.000
24.47000 353.000
24.68000 332.000
24.89000 335.000
25.10000 348.000
25.31000 340.000
25.52000 561.000
25.73000 1072.000
25.94000 419.000
26.15000 4191.000
26.36000 673.000
26.57000 392.000
26.78000 349.000
26.99000 545.000
27.20000 605.000
27.41000 337.000
27.62000 346.000
27.83000 442.000
28.04000 419.000
28.25000 319.000
28.46000 368.000
28.67000 412.000
28.88000 2356.000
29.09000 404.000
29.30000 319.000
29.51000 354.000
29.72000 682.000
29.93000 644.000
30.14000 366.000
30.35000 655.000
30.56000 255.000
30.77000 290.000
30.98000 295.000
31.19000 336.000
31.40000 280.000
31.61000 271.000
31.82000 279.000
32.03000 245.000
32.24000 256.000
32.45000 251.000
32.66000 253.000
32.87000 253.000
33.08000 259.000
33.29000 277.000
33.50000 300.000
33.71000 251.000
33.92000 319.000
34.13000 226.000
34.34000 415.000
34.55000 246.000
34.76000 211.000
34.97000 254.000
35.18000 241.000
35.39000 215.000
35.60000 208.000
35.81000 743.000
36.02000 296.000
36.23000 952.000
36.44000 454.000
36.65000 358.000
36.86000 233.000
37.07000 286.000
37.28000 258.000
37.49000 216.000
37.70000 340.000
37.91000 208.000
38.12000 192.000
38.33000 1163.000
38.54000 233.000
38.75000 189.000
38.96000 177.000
39.17000 186.000
39.38000 153.000
39.59000 235.000
39.80000 157.000
40.01000 179.000
40.22000 168.000
40.43000 181.000
40.64000 187.000
40.85000 152.000
41.06000 284.000
41.27000 168.000
41.48000 180.000
41.69000 209.000
41.90000 222.000
42.11000 176.000
42.32000 160.000
42.53000 311.000
42.74000 165.000
42.95000 166.000
43.16000 155.000
43.37000 179.000
43.58000 174.000
43.79000 226.000
44.00000 325.000
44.21000 175.000
44.42000 157.000
44.63000 196.000
44.84000 666.000
45.05000 214.000
45.26000 188.000
45.47000 234.000
45.68000 213.000
45.89000 173.000
46.10000 178.000
46.31000 210.000
46.52000 166.000
46.73000 186.000
46.94000 224.000
47.15000 188.000
47.36000 176.000
47.57000 1452.000
47.78000 168.000
47.99000 167.000
48.20000 204.000
48.41000 246.000
48.62000 160.000
48.83000 158.000
49.04000 158.000
49.25000 161.000
49.46000 158.000
49.67000 172.000
49.88000 138.000
50.09000 228.000
50.30000 434.000
50.51000 201.000
50.72000 153.000
50.93000 179.000
51.14000 162.000
51.35000 164.000
51.56000 163.000
51.77000 211.000
51.98000 163.000
52.19000 233.000
52.40000 170.000
52.61000 173.000
52.82000 201.000
53.03000 636.000
53.24000 189.000
53.45000 157.000
53.66000 209.000
53.87000 164.000
54.08000 175.000
54.29000 176.000
54.50000 345.000
54.71000 182.000
54.92000 280.000
55.13000 238.000
55.34000 326.000
55.55000 287.000
55.76000 248.000
55.97000 192.000
56.18000 340.000
56.39000 188.000
56.60000 207.000
56.81000 181.000
57.02000 168.000
57.23000 283.000
57.44000 163.000
57.65000 166.000
57.86000 178.000
58.07000 153.000
58.28000 141.000
58.49000 163.000
58.70000 139.000
58.91000 181.000
59.12000 157.000
59.33000 154.000
59.54000 146.000
59.75000 122.000
59.96000 207.000
60.17000 147.000
60.38000 147.000
60.59000 225.000
60.80000 134.000
61.01000 146.000
61.22000 140.000
61.43000 135.000
61.64000 142.000
61.85000 160.000
61.98500 208.000

File: HSC052.xy
2.00000 9.000
2.21000 9.000
2.42000 12.000
2.63000 9.000
2.84000 6.000
3.05000 27.000
3.26000 1015.000
3.47000 943.000
3.68000 925.000
3.89000 876.000
4.10000 866.000
4.31000 809.000
4.52000 834.000
4.73000 785.000
4.94000 820.000
5.15000 804.000
5.36000 791.000
5.57000 821.000
5.78000 810.000
5.99000 844.000
6.20000 829.000
6.41000 809.000
6.62000 883.000
6.83000 841.000
7.04000 865.000
7.25000 888.000
7.46000 925.000
7.67000 863.000
7.88000 906.000
8.09000 914.000
8.30000 900.000
8.51000 964.000
8.72000 939.000
8.93000 932.000
9.14000 951.000
9.35000 985.000
9.56000 980.000
9.77000 975.000
9.98000 993.000
10.19000 1043.000
10.40000 1030.000
10.61000 1090.000
10.82000 1037.000
11.03000 1071.000
11.24000 1050.000
11.45000 1067.000
11.66000 1072.000
11.87000 1172.000
12.08000 1195.000
12.29000 1262.000
12.50000 1445.000
12.71000 1593.000
12.92000 1652.000
13.13000 1607.000
13.34000 1698.000
13.55000 1557.000
13.76000 1606.000
13.97000 1490.000
14.18000 1566.000
14.39000 1467.000
14.60000 1491.000
14.81000 1441.000
15.02000 1444.000
15.23000 1405.000
15.44000 1461.000
15.65000 1385.000
15.86000 1373.000
16.07000 1355.000
16.28000 1311.000
16.49000 1410.000
16.70000 1374.000
16.91000 1395.000
17.12000 1394.000
17.33000 1401.000
17.54000 1409.000
17.75000 1453.000
17.96000 1493.000
18.17000 1463.000
18.38000 1436.000
18.59000 1452.000
18.80000 1426.000
19.01000 1401.000
19.22000 1440.000
19.43000 1355.000
19.64000 1348.000
19.85000 1378.000
20.06000 1397.000
20.27000 1443.000
20.48000 1382.000
20.69000 1388.000
20.90000 1353.000
21.11000 1426.000
21.32000 1455.000
21.53000 1428.000
21.74000 1417.000
21.95000 1403.000
22.16000 1476.000
22.37000 1410.000
22.58000 1420.000
22.79000 1360.000
23.00000 1389.000
23.21000 1380.000
23.42000 1448.000
23.63000 1376.000
23.84000 1437.000
24.05000 1381.000
24.26000 1389.000
24.47000 1408.000
24.68000 1516.000
24.89000 1507.000
25.10000 1598.000
25.31000 1597.000
25.52000 1668.000
25.73000 1824.000
25.94000 1999.000
26.15000 2206.000
26.36000 2479.000
26.57000 2853.000
26.78000 3420.000
26.99000 4141.000
27.20000 4826.000
27.41000 5712.000
27.62000 5558.000
27.83000 4606.000
28.04000 3493.000
28.25000 2698.000
28.46000 2156.000
28.67000 1824.000
28.88000 1675.000
29.09000 1555.000
29.30000 1473.000
29.51000 1414.000
29.72000 1279.000
29.93000 1193.000
30.14000 1216.000
30.35000 1161.000
30.56000 1168.000
30.77000 1046.000
30.98000 1079.000
31.19000 1033.000
31.40000 1021.000
31.61000 1059.000
31.82000 904.000
32.03000 983.000
32.24000 968.000
32.45000 875.000
32.66000 839.000
32.87000 880.000
33.08000 837.000
33.29000 862.000
33.50000 829.000
33.71000 810.000
33.92000 832.000
34.13000 755.000
34.34000 766.000
34.55000 765.000
34.76000 702.000
34.97000 729.000
35.18000 749.000
35.39000 717.000
35.60000 740.000
35.81000 702.000
36.02000 830.000
36.23000 694.000
36.44000 679.000
36.65000 672.000
36.86000 671.000
37.07000 654.000
37.28000 639.000
37.49000 674.000
37.70000 671.000
37.91000 648.000
38.12000 636.000
38.33000 661.000
38.54000 665.000
38.75000 606.000
38.96000 625.000
39.17000 645.000
39.38000 716.000
39.59000 655.000
39.80000 624.000
40.01000 615.000
40.22000 650.000
40.43000 635.000
40.64000 619.000
40.85000 621.000
41.06000 614.000
41.27000 662.000
41.48000 644.000
41.69000 618.000
41.90000 616.000
42.11000 614.000
42.32000 603.000
42.53000 577.000
42.74000 654.000
42.95000 621.000
43.16000 763.000
43.37000 644.000
43.58000 666.000
43.79000 688.000
44.00000 688.000
44.21000 694.000
44.42000 674.000
44.63000 673.000
44.84000 697.000
45.05000 670.000
45.26000 658.000
45.47000 622.000
45.68000 667.000
45.89000 661.000
46.10000 626.000
46.31000 631.000
46.52000 609.000
46.73000 629.000
46.94000 589.000
47.15000 646.000
47.36000 598.000
47.57000 642.000
47.78000 606.000
47.99000 580.000
48.20000 588.000
48.41000 571.000
48.62000 622.000
48.83000 561.000
49.04000 594.000
49.25000 553.000
49.46000 537.000
49.67000 553.000
49.88000 566.000
50.09000 547.000
50.30000 536.000
50.51000 559.000
50.72000 502.000
50.93000 549.000
51.14000 542.000
51.35000 497.000
51.56000 569.000
51.77000 531.000
51.98000 506.000
52.19000 540.000
52.40000 514.000
52.61000 520.000
52.82000 547.000
53.03000 557.000
53.24000 496.000
53.45000 484.000
53.66000 492.000
53.87000 504.000
54.08000 484.000
54.29000 637.000
54.50000 496.000
54.71000 488.000
54.92000 471.000
55.13000 494.000
55.34000 513.000
55.55000 506.000
55.76000 548.000
55.97000 531.000
56.18000 525.000
56.39000 559.000
56.60000 635.000
56.81000 529.000
57.02000 491.000
57.23000 551.000
57.44000 552.000
57.65000 507.000
57.86000 455.000
58.07000 465.000
58.28000 440.000
58.49000 446.000
58.70000 412.000
58.91000 448.000
59.12000 454.000
59.33000 407.000
59.54000 428.000
59.75000 410.000
59.96000 391.000
60.17000 406.000
60.38000 407.000
60.59000 422.000
60.80000 424.000
61.01000 388.000
61.22000 376.000
61.43000 388.000
61.64000 373.000
61.85000 377.000
61.98500 380.000

File: HSC054.xy
2.00000 8.000
2.21000 11.000
2.42000 9.000
2.63000 8.000
2.84000 11.000
3.05000 84.000
3.26000 910.000
3.47000 873.000
3.68000 875.000
3.89000 753.000
4.10000 774.000
4.31000 765.000
4.52000 802.000
4.73000 782.000
4.94000 808.000
5.15000 853.000
5.36000 853.000
5.57000 985.000
5.78000 1229.000
5.99000 2920.000
6.20000 4127.000
6.41000 1013.000
6.62000 935.000
6.83000 924.000
7.04000 1210.000
7.25000 949.000
7.46000 914.000
7.67000 998.000
7.88000 910.000
8.09000 968.000
8.30000 931.000
8.51000 986.000
8.72000 941.000
8.93000 1001.000
9.14000 977.000
9.35000 1027.000
9.56000 1069.000
9.77000 1048.000
9.98000 974.000
10.19000 1021.000
10.40000 1032.000
10.61000 1569.000
10.82000 1390.000
11.03000 2335.000
11.24000 1231.000
11.45000 1163.000
11.66000 1204.000
11.87000 1289.000
12.08000 2494.000
12.29000 16047.000
12.50000 2233.000
12.71000 1432.000
12.92000 1283.000
13.13000 1247.000
13.34000 1431.000
13.55000 1208.000
13.76000 1367.000
13.97000 1240.000
14.18000 1194.000
14.39000 1121.000
14.60000 1086.000
14.81000 1136.000
15.02000 1100.000
15.23000 1133.000
15.44000 1138.000
15.65000 1092.000
15.86000 1134.000
16.07000 1187.000
16.28000 1230.000
16.49000 1172.000
16.70000 1155.000
16.91000 1106.000
17.12000 1236.000
17.33000 1230.000
17.54000 1368.000
17.75000 1329.000
17.96000 1267.000
18.17000 1278.000
18.38000 1389.000
18.59000 1616.000
18.80000 1378.000
19.01000 1331.000
19.22000 1325.000
19.43000 1287.000
19.64000 1269.000
19.85000 1266.000
20.06000 1326.000
20.27000 1344.000
20.48000 1379.000
20.69000 1285.000
20.90000 1246.000
21.11000 1313.000
21.32000 1366.000
21.53000 1329.000
21.74000 1381.000
21.95000 1406.000
22.16000 1501.000
22.37000 1472.000
22.58000 1535.000
22.79000 1569.000
23.00000 1588.000
23.21000 1803.000
23.42000 1917.000
23.63000 1878.000
23.84000 1893.000
24.05000 1709.000
24.26000 1581.000
24.47000 1586.000
24.68000 1991.000
24.89000 2044.000
25.10000 1715.000
25.31000 1745.000
25.52000 1900.000
25.73000 1908.000
25.94000 2094.000
26.15000 2823.000
26.36000 3733.000
26.57000 5113.000
26.78000 6179.000
26.99000 6310.000
27.20000 4872.000
27.41000 3666.000
27.62000 3377.000
27.83000 3313.000
28.04000 3157.000
28.25000 2654.000
28.46000 2164.000
28.67000 2026.000
28.88000 1919.000
29.09000 1812.000
29.30000 1719.000
29.51000 1546.000
29.72000 1420.000
29.93000 1424.000
30.14000 1419.000
30.35000 1454.000
30.56000 1395.000
30.77000 1415.000
30.98000 1868.000
31.19000 2350.000
31.40000 1435.000
31.61000 1250.000
31.82000 1166.000
32.03000 1140.000
32.24000 1143.000
32.45000 1016.000
32.66000 1077.000
32.87000 1015.000
33.08000 1082.000
33.29000 1060.000
33.50000 1034.000
33.71000 1069.000
33.92000 1052.000
34.13000 968.000
34.34000 1006.000
34.55000 972.000
34.76000 878.000
34.97000 853.000
35.18000 860.000
35.39000 831.000
35.60000 856.000
35.81000 788.000
36.02000 789.000
36.23000 760.000
36.44000 743.000
36.65000 730.000
36.86000 723.000
37.07000 734.000
37.28000 735.000
37.49000 942.000
37.70000 864.000
37.91000 801.000
38.12000 765.000
38.33000 722.000
38.54000 683.000
38.75000 701.000
38.96000 760.000
39.17000 784.000
39.38000 828.000
39.59000 766.000
39.80000 785.000
40.01000 730.000
40.22000 733.000
40.43000 787.000
40.64000 771.000
40.85000 776.000
41.06000 783.000
41.27000 805.000
41.48000 728.000
41.69000 687.000
41.90000 705.000
42.11000 694.000
42.32000 739.000
42.53000 732.000
42.74000 734.000
42.95000 740.000
43.16000 726.000
43.37000 705.000
43.58000 680.000
43.79000 735.000
44.00000 722.000
44.21000 695.000
44.42000 724.000
44.63000 707.000
44.84000 698.000
45.05000 666.000
45.26000 691.000
45.47000 704.000
45.68000 709.000
45.89000 719.000
46.10000 700.000
46.31000 670.000
46.52000 662.000
46.73000 662.000
46.94000 657.000
47.15000 644.000
47.36000 666.000
47.57000 635.000
47.78000 636.000
47.99000 594.000
48.20000 580.000
48.41000 628.000
48.62000 593.000
48.83000 593.000
49.04000 579.000
49.25000 606.000
49.46000 614.000
49.67000 616.000
49.88000 566.000
50.09000 593.000
50.30000 578.000
50.51000 568.000
50.72000 580.000
50.93000 598.000
51.14000 565.000
51.35000 596.000
51.56000 615.000
51.77000 622.000
51.98000 685.000
52.19000 690.000
52.40000 675.000
52.61000 657.000
52.82000 654.000
53.03000 724.000
53.24000 676.000
53.45000 617.000
53.66000 636.000
53.87000 642.000
54.08000 642.000
54.29000 639.000
54.50000 676.000
54.71000 677.000
54.92000 666.000
55.13000 629.000
55.34000 675.000
55.55000 660.000
55.76000 656.000
55.97000 598.000
56.18000 623.000
56.39000 593.000
56.60000 578.000
56.81000 601.000
57.02000 506.000
57.23000 563.000
57.44000 577.000
57.65000 536.000
57.86000 517.000
58.07000 545.000
58.28000 481.000
58.49000 501.000
58.70000 499.000
58.91000 483.000
59.12000 473.000
59.33000 484.000
59.54000 461.000
59.75000 466.000
59.96000 463.000
60.17000 449.000
60.38000 447.000
60.59000 459.000
60.80000 449.000
61.01000 433.000
61.22000 470.000
61.43000 483.000
61.64000 445.000
61.85000 463.000
61.98500 454.000