Folder: phd-thesis/ISoD/xrd_data (part 3)

File: HSC006A.xy
2.00000 366.000
2.21000 307.000
2.42000 297.000
2.63000 268.000
2.84000 250.000
3.05000 233.000
3.26000 207.000
3.47000 252.000
3.68000 234.000
3.89000 232.000
4.10000 211.000
4.31000 226.000
4.52000 231.000
4.73000 208.000
4.94000 239.000
5.15000 217.000
5.36000 230.000
5.57000 252.000
5.78000 230.000
5.99000 248.000
6.20000 260.000
6.41000 259.000
6.62000 272.000
6.83000 233.000
7.04000 225.000
7.25000 232.000
7.46000 215.000
7.67000 221.000
7.88000 217.000
8.09000 231.000
8.30000 258.000
8.51000 237.000
8.72000 260.000
8.93000 309.000
9.14000 353.000
9.35000 408.000
9.56000 477.000
9.77000 309.000
9.98000 286.000
10.19000 266.000
10.40000 246.000
10.61000 247.000
10.82000 226.000
11.03000 227.000
11.24000 245.000
11.45000 236.000
11.66000 244.000
11.87000 270.000
12.08000 1193.000
12.29000 359.000
12.50000 299.000
12.71000 308.000
12.92000 287.000
13.13000 330.000
13.34000 421.000
13.55000 280.000
13.76000 341.000
13.97000 295.000
14.18000 285.000
14.39000 262.000
14.60000 258.000
14.81000 244.000
15.02000 249.000
15.23000 251.000
15.44000 255.000
15.65000 269.000
15.86000 266.000
16.07000 254.000
16.28000 283.000
16.49000 245.000
16.70000 260.000
16.91000 291.000
17.12000 261.000
17.33000 281.000
17.54000 306.000
17.75000 307.000
17.96000 299.000
18.17000 350.000
18.38000 315.000
18.59000 368.000
18.80000 406.000
19.01000 479.000
19.22000 482.000
19.43000 475.000
19.64000 440.000
19.85000 522.000
20.06000 924.000
20.27000 403.000
20.48000 381.000
20.69000 354.000
20.90000 415.000
21.11000 650.000
21.32000 489.000
21.53000 456.000
21.74000 456.000
21.95000 469.000
22.16000 585.000
22.37000 379.000
22.58000 349.000
22.79000 337.000
23.00000 342.000
23.21000 327.000
23.42000 311.000
23.63000 300.000
23.84000 337.000
24.05000 301.000
24.26000 362.000
24.47000 334.000
24.68000 354.000
24.89000 347.000
25.10000 343.000
25.31000 363.000
25.52000 315.000
25.73000 336.000
25.94000 336.000
26.15000 372.000
26.36000 339.000
26.57000 358.000
26.78000 393.000
26.99000 366.000
27.20000 355.000
27.41000 364.000
27.62000 350.000
27.83000 370.000
28.04000 335.000
28.25000 370.000
28.46000 395.000
28.67000 470.000
28.88000 534.000
29.09000 470.000
29.30000 396.000
29.51000 350.000
29.72000 325.000
29.93000 308.000
30.14000 285.000
30.35000 263.000
30.56000 282.000
30.77000 277.000
30.98000 269.000
31.19000 268.000
31.40000 262.000
31.61000 265.000
31.82000 294.000
32.03000 331.000
32.24000 645.000
32.45000 1119.000
32.66000 646.000
32.87000 560.000
33.08000 759.000
33.29000 418.000
33.50000 344.000
33.71000 367.000
33.92000 298.000
34.13000 308.000
34.34000 255.000
34.55000 267.000
34.76000 268.000
34.97000 327.000
35.18000 343.000
35.39000 256.000
35.60000 237.000
35.81000 231.000
36.02000 215.000
36.23000 208.000
36.44000 202.000
36.65000 182.000
36.86000 218.000
37.07000 221.000
37.28000 208.000
37.49000 204.000
37.70000 190.000
37.91000 196.000
38.12000 220.000
38.33000 228.000
38.54000 217.000
38.75000 182.000
38.96000 205.000
39.17000 174.000
39.38000 183.000
39.59000 187.000
39.80000 168.000
40.01000 193.000
40.22000 199.000
40.43000 192.000
40.64000 214.000
40.85000 189.000
41.06000 180.000
41.27000 179.000
41.48000 203.000
41.69000 184.000
41.90000 192.000
42.11000 184.000
42.32000 198.000
42.53000 234.000
42.74000 351.000
42.95000 324.000
43.16000 300.000
43.37000 277.000
43.58000 225.000
43.79000 204.000
44.00000 183.000
44.21000 207.000
44.42000 208.000
44.63000 328.000
44.84000 286.000
45.05000 270.000
45.26000 238.000
45.47000 230.000
45.68000 225.000
45.89000 215.000
46.10000 213.000
46.31000 211.000
46.52000 230.000
46.73000 211.000
46.94000 212.000
47.15000 217.000
47.36000 236.000
47.57000 266.000
47.78000 230.000
47.99000 213.000
48.20000 225.000
48.41000 184.000
48.62000 195.000
48.83000 171.000
49.04000 218.000
49.25000 210.000
49.46000 219.000
49.67000 264.000
49.88000 608.000
50.09000 269.000
50.30000 220.000
50.51000 192.000
50.72000 181.000
50.93000 180.000
51.14000 172.000
51.35000 184.000
51.56000 188.000
51.77000 182.000
51.98000 192.000
52.19000 180.000
52.40000 173.000
52.61000 206.000
52.82000 178.000
53.03000 190.000
53.24000 187.000
53.45000 181.000
53.66000 183.000
53.87000 183.000
54.08000 182.000
54.29000 207.000
54.50000 212.000
54.71000 247.000
54.92000 199.000
55.13000 181.000
55.34000 187.000
55.55000 184.000
55.76000 177.000
55.97000 169.000
56.18000 167.000
56.39000 176.000
56.60000 166.000
56.81000 171.000
57.02000 166.000
57.23000 158.000
57.44000 199.000
57.65000 219.000
57.86000 205.000
58.07000 186.000
58.28000 170.000
58.49000 162.000
58.70000 163.000
58.91000 160.000
59.12000 162.000
59.33000 159.000
59.54000 148.000
59.75000 150.000
59.96000 151.000
60.17000 153.000
60.38000 157.000
60.59000 160.000
60.80000 158.000
61.01000 143.000
61.22000 155.000
61.43000 150.000
61.64000 167.000
61.85000 177.000
61.98500 171.000

File: HSC006B_range_1.xy
2.00000 537.000
2.21000 558.000
2.42000 358.000
2.63000 236.000
2.84000 181.000
3.05000 151.000
3.26000 148.000
3.47000 148.000
3.68000 147.000
3.89000 137.000
4.10000 134.000
4.31000 134.000
4.52000 119.000
4.73000 123.000
4.94000 117.000
5.15000 117.000
5.36000 112.000
5.57000 105.000
5.78000 114.000
5.99000 118.000
6.20000 109.000
6.41000 92.000
6.62000 104.000
6.83000 121.000
7.04000 96.000
7.25000 125.000
7.46000 121.000
7.67000 126.000
7.88000 111.000
8.09000 123.000
8.30000 114.000
8.51000 122.000
8.72000 124.000
8.93000 118.000
9.14000 123.000
9.35000 115.000
9.56000 119.000
9.77000 119.000
9.98000 134.000
10.19000 124.000
10.40000 126.000
10.61000 111.000
10.82000 147.000
11.03000 127.000
11.24000 135.000
11.45000 138.000
11.66000 133.000
11.87000 135.000
12.08000 127.000
12.29000 145.000
12.50000 145.000
12.71000 152.000
12.92000 167.000
13.13000 159.000
13.34000 166.000
13.55000 164.000
13.76000 156.000
13.97000 186.000
14.18000 183.000
14.39000 180.000
14.60000 191.000
14.81000 192.000
15.02000 166.000
15.23000 191.000
15.44000 191.000
15.65000 197.000
15.86000 207.000
16.07000 207.000
16.28000 196.000
16.49000 212.000
16.70000 214.000
16.91000 194.000
17.12000 203.000
17.33000 194.000
17.54000 198.000
17.75000 190.000
17.96000 201.000
18.17000 214.000
18.38000 239.000
18.59000 306.000
18.80000 321.000
19.01000 252.000
19.22000 204.000
19.43000 207.000
19.64000 215.000
19.85000 226.000
20.06000 218.000
20.27000 221.000
20.48000 225.000
20.69000 214.000
20.90000 198.000
21.11000 207.000
21.32000 244.000
21.53000 236.000
21.74000 249.000
21.95000 226.000
22.16000 227.000
22.37000 213.000
22.58000 225.000
22.79000 233.000
23.00000 236.000
23.21000 239.000
23.42000 259.000
23.63000 237.000
23.84000 262.000
24.05000 296.000
24.26000 385.000
24.47000 371.000
24.68000 295.000
24.89000 251.000
25.10000 240.000
25.31000 242.000
25.52000 245.000
25.73000 237.000
25.94000 219.000
26.15000 239.000
26.36000 235.000
26.57000 214.000
26.78000 238.000
26.99000 242.000
27.20000 206.000
27.41000 245.000
27.62000 255.000
27.83000 423.000
28.04000 415.000
28.25000 259.000
28.46000 209.000
28.67000 221.000
28.88000 194.000
29.09000 214.000
29.30000 206.000
29.51000 205.000
29.72000 192.000
29.93000 184.000
30.14000 178.000
30.35000 225.000
30.56000 221.000
30.77000 206.000
30.98000 195.000
31.19000 175.000
31.40000 177.000
31.61000 175.000
31.82000 174.000
32.03000 182.000
32.24000 184.000
32.45000 167.000
32.66000 198.000
32.87000 162.000
33.08000 175.000
33.29000 162.000
33.50000 144.000
33.71000 150.000
33.92000 153.000
34.13000 139.000
34.34000 134.000
34.55000 152.000
34.76000 146.000
34.97000 138.000
35.18000 147.000
35.39000 143.000
35.60000 145.000
35.81000 152.000
36.02000 154.000
36.23000 150.000
36.44000 135.000
36.65000 121.000
36.86000 144.000
37.07000 142.000
37.28000 126.000
37.49000 131.000
37.70000 134.000
37.91000 121.000
38.12000 133.000
38.33000 115.000
38.54000 141.000
38.75000 135.000
38.96000 113.000
39.17000 127.000
39.38000 111.000
39.59000 135.000
39.80000 122.000
40.01000 129.000
40.22000 128.000
40.43000 112.000
40.64000 110.000
40.85000 149.000
41.06000 126.000
41.27000 132.000
41.48000 129.000
41.69000 130.000
41.90000 121.000
42.11000 137.000
42.32000 141.000
42.53000 125.000
42.74000 131.000
42.95000 114.000
43.16000 117.000
43.37000 140.000
43.58000 135.000
43.79000 131.000
44.00000 153.000
44.21000 127.000
44.42000 122.000
44.63000 123.000
44.84000 135.000
45.05000 149.000
45.26000 147.000
45.47000 128.000
45.68000 108.000
45.89000 120.000
46.10000 127.000
46.31000 121.000
46.52000 127.000
46.73000 130.000
46.94000 127.000
47.15000 129.000
47.36000 122.000
47.57000 133.000
47.78000 119.000
47.99000 129.000
48.20000 119.000
48.41000 124.000
48.62000 112.000
48.83000 136.000
49.04000 124.000
49.25000 116.000
49.46000 132.000
49.67000 137.000
49.88000 116.000
50.09000 118.000
50.30000 125.000
50.51000 113.000
50.72000 119.000
50.93000 105.000
51.14000 131.000
51.35000 123.000
51.56000 112.000
51.77000 133.000
51.98000 118.000
52.19000 120.000
52.40000 113.000
52.61000 115.000
52.82000 119.000
53.03000 108.000
53.24000 127.000
53.45000 117.000
53.66000 113.000
53.87000 95.000
54.08000 113.000
54.29000 102.000
54.50000 97.000
54.71000 105.000
54.92000 120.000
55.13000 113.000
55.34000 106.000
55.55000 108.000
55.76000 115.000
55.97000 102.000
56.18000 111.000
56.39000 109.000
56.60000 87.000
56.81000 111.000
57.02000 115.000
57.23000 102.000
57.44000 88.000
57.65000 130.000
57.86000 94.000
58.07000 108.000
58.28000 92.000
58.49000 96.000
58.70000 101.000
58.91000 112.000
59.12000 100.000
59.33000 84.000
59.54000 115.000
59.75000 91.000
59.96000 97.000
60.17000 86.000
60.38000 92.000
60.59000 97.000
60.80000 99.000
61.01000 90.000
61.22000 98.000
61.43000 103.000
61.64000 92.000
61.85000 107.000
61.98500 94.000

File: HSC006B_range_2.xy
2.00000 534.000
2.21000 537.000
2.42000 334.000
2.63000 222.000
2.84000 189.000
3.05000 187.000
3.26000 145.000
3.47000 139.000
3.68000 128.000
3.89000 117.000
4.10000 141.000
4.31000 121.000
4.52000 118.000
4.73000 118.000
4.94000 125.000
5.15000 124.000
5.36000 113.000
5.57000 121.000
5.78000 119.000
5.99000 123.000
6.20000 91.000
6.41000 125.000
6.62000 121.000
6.83000 101.000
7.04000 132.000
7.25000 111.000
7.46000 119.000
7.67000 111.000
7.88000 119.000
8.09000 113.000
8.30000 117.000
8.51000 133.000
8.72000 115.000
8.93000 116.000
9.14000 100.000
9.35000 106.000
9.56000 135.000
9.77000 111.000
9.98000 114.000
10.19000 135.000
10.40000 131.000
10.61000 126.000
10.82000 124.000
11.03000 138.000
11.24000 137.000
11.45000 143.000
11.66000 137.000
11.87000 132.000
12.08000 134.000
12.29000 151.000
12.50000 146.000
12.71000 154.000
12.92000 169.000
13.13000 171.000
13.34000 172.000
13.55000 161.000
13.76000 169.000
13.97000 181.000
14.18000 171.000
14.39000 192.000
14.60000 167.000
14.81000 183.000
15.02000 187.000
15.23000 193.000
15.44000 197.000
15.65000 170.000
15.86000 200.000
16.07000 196.000
16.28000 195.000
16.49000 207.000
16.70000 215.000
16.91000 196.000
17.12000 210.000
17.33000 186.000
17.54000 218.000
17.75000 219.000
17.96000 199.000
18.17000 203.000
18.38000 229.000
18.59000 304.000
18.80000 305.000
19.01000 249.000
19.22000 202.000
19.43000 221.000
19.64000 232.000
19.85000 214.000
20.06000 254.000
20.27000 236.000
20.48000 231.000
20.69000 234.000
20.90000 241.000
21.11000 228.000
21.32000 228.000
21.53000 221.000
21.74000 210.000
21.95000 224.000
22.16000 220.000
22.37000 231.000
22.58000 234.000
22.79000 246.000
23.00000 214.000
23.21000 229.000
23.42000 240.000
23.63000 260.000
23.84000 288.000
24.05000 308.000
24.26000 368.000
24.47000 376.000
24.68000 291.000
24.89000 260.000
25.10000 285.000
25.31000 244.000
25.52000 243.000
25.73000 250.000
25.94000 241.000
26.15000 251.000
26.36000 235.000
26.57000 254.000
26.78000 240.000
26.99000 248.000
27.20000 250.000
27.41000 236.000
27.62000 273.000
27.83000 424.000
28.04000 411.000
28.25000 212.000
28.46000 210.000
28.67000 204.000
28.88000 230.000
29.09000 228.000
29.30000 198.000
29.51000 199.000
29.72000 223.000
29.93000 203.000
30.14000 200.000
30.35000 221.000
30.56000 215.000
30.77000 225.000
30.98000 207.000
31.19000 167.000
31.40000 189.000
31.61000 192.000
31.82000 178.000
32.03000 172.000
32.24000 163.000
32.45000 171.000
32.66000 172.000
32.87000 154.000
33.08000 170.000
33.29000 172.000
33.50000 155.000
33.71000 165.000
33.92000 153.000
34.13000 138.000
34.34000 151.000
34.55000 156.000
34.76000 148.000
34.97000 146.000
35.18000 148.000
35.39000 145.000
35.60000 156.000
35.81000 139.000
36.02000 143.000
36.23000 130.000
36.44000 130.000
36.65000 143.000
36.86000 142.000
37.07000 154.000
37.28000 135.000
37.49000 150.000
37.70000 119.000
37.91000 136.000
38.12000 140.000
38.33000 126.000
38.54000 134.000
38.75000 118.000
38.96000 128.000
39.17000 134.000
39.38000 129.000
39.59000 133.000
39.80000 121.000
40.01000 149.000
40.22000 122.000
40.43000 128.000
40.64000 124.000
40.85000 133.000
41.06000 133.000
41.27000 129.000
41.48000 134.000
41.69000 143.000
41.90000 135.000
42.11000 151.000
42.32000 130.000
42.53000 131.000
42.74000 120.000
42.95000 142.000
43.16000 141.000
43.37000 151.000
43.58000 143.000
43.79000 147.000
44.00000 137.000
44.21000 145.000
44.42000 129.000
44.63000 134.000
44.84000 147.000
45.05000 117.000
45.26000 141.000
45.47000 129.000
45.68000 139.000
45.89000 132.000
46.10000 139.000
46.31000 131.000
46.52000 134.000
46.73000 126.000
46.94000 124.000
47.15000 136.000
47.36000 126.000
47.57000 128.000
47.78000 114.000
47.99000 132.000
48.20000 114.000
48.41000 131.000
48.62000 114.000
48.83000 131.000
49.04000 131.000
49.25000 116.000
49.46000 124.000
49.67000 122.000
49.88000 128.000
50.09000 121.000
50.30000 122.000
50.51000 131.000
50.72000 111.000
50.93000 132.000
51.14000 134.000
51.35000 123.000
51.56000 122.000
51.77000 117.000
51.98000 117.000
52.19000 118.000
52.40000 111.000
52.61000 108.000
52.82000 120.000
53.03000 122.000
53.24000 105.000
53.45000 113.000
53.66000 118.000
53.87000 107.000
54.08000 115.000
54.29000 114.000
54.50000 112.000
54.71000 111.000
54.92000 126.000
55.13000 118.000
55.34000 119.000
55.55000 106.000
55.76000 104.000
55.97000 108.000
56.18000 123.000
56.39000 111.000
56.60000 116.000
56.81000 108.000
57.02000 109.000
57.23000 102.000
57.44000 116.000
57.65000 108.000
57.86000 103.000
58.07000 105.000
58.28000 97.000
58.49000 114.000
58.70000 112.000
58.91000 96.000
59.12000 96.000
59.33000 89.000
59.54000 98.000
59.75000 105.000
59.96000 93.000
60.17000 91.000
60.38000 94.000
60.59000 111.000
60.80000 97.000
61.01000 87.000
61.22000 97.000
61.43000 90.000
61.64000 81.000
61.85000 95.000
61.98500 86.000

File: HSC006B_ranges_combined.xy
2.0 1071.0
2.21 1095.0
2.42 692.0
2.63 458.0
2.84 370.0
3.05 338.0
3.26 293.0
3.47 287.0
3.68 275.0
3.89 254.0
4.1 275.0
4.31 255.0
4.52 237.0
4.73 241.0
4.94 242.0
5.15 241.0
5.36 225.0
5.57 226.0
5.78 233.0
5.99 241.0
6.2 200.0
6.41 217.0
6.62 225.0
6.83 222.0
7.04 228.0
7.25 236.0
7.46 240.0
7.67 237.0
7.88 230.0
8.09 236.0
8.3 231.0
8.51 255.0
8.72 239.0
8.93 234.0
9.14 223.0
9.35 221.0
9.56 254.0
9.77 230.0
9.98 248.0
10.19 259.0
10.4 257.0
10.61 237.0
10.82 271.0
11.03 265.0
11.24 272.0
11.45 281.0
11.66 270.0
11.87 267.0
12.08 261.0
12.29 296.0
12.5 291.0
12.71 306.0
12.92 336.0
13.13 330.0
13.34 338.0
13.55 325.0
13.76 325.0
13.97 367.0
14.18 354.0
14.39 372.0
14.6 358.0
14.81 375.0
15.02 353.0
15.23 384.0
15.44 388.0
15.65 367.0
15.86 407.0
16.07 403.0
16.28 391.0
16.49 419.0
16.7 429.0
16.91 390.0
17.12 413.0
17.33 380.0
17.54 416.0
17.75 409.0
17.96 400.0
18.17 417.0
18.38 468.0
18.59 610.0
18.8 626.0
19.01 501.0
19.22 406.0
19.43 428.0
19.64 447.0
19.85 440.0
20.06 472.0
20.27 457.0
20.48 456.0
20.69 448.0
20.9 439.0
21.11 435.0
21.32 472.0
21.53 457.0
21.74 459.0
21.95 450.0
22.16 447.0
22.37 444.0
22.58 459.0
22.79 479.0
23.0 450.0
23.21 468.0
23.42 499.0
23.63 497.0
23.84 550.0
24.05 604.0
24.26 753.0
24.47 747.0
24.68 586.0
24.89 511.0
25.1 525.0
25.31 486.0
25.52 488.0
25.73 487.0
25.94 460.0
26.15 490.0
26.36 470.0
26.57 468.0
26.78 478.0
26.99 490.0
27.2 456.0
27.41 481.0
27.62 528.0
27.83 847.0
28.04 826.0
28.25 471.0
28.46 419.0
28.67 425.0
28.88 424.0
29.09 442.0
29.3 404.0
29.51 404.0
29.72 415.0
29.93 387.0
30.14 378.0
30.35 446.0
30.56 436.0
30.77 431.0
30.98 402.0
31.19 342.0
31.4 366.0
31.61 367.0
31.82 352.0
32.03 354.0
32.24 347.0
32.45 338.0
32.66 370.0
32.87 316.0
33.08 345.0
33.29 334.0
33.5 299.0
33.71 315.0
33.92 306.0
34.13 277.0
34.34 285.0
34.55 308.0
34.76 294.0
34.97 284.0
35.18 295.0
35.39 288.0
35.6 301.0
35.81 291.0
36.02 297.0
36.23 280.0
36.44 265.0
36.65 264.0
36.86 286.0
37.07 296.0
37.28 261.0
37.49 281.0
37.7 253.0
37.91 257.0
38.12 273.0
38.33 241.0
38.54 275.0
38.75 253.0
38.96 241.0
39.17 261.0
39.38 240.0
39.59 268.0
39.8 243.0
40.01 278.0
40.22 250.0
40.43 240.0
40.64 234.0
40.85 282.0
41.06 259.0
41.27 261.0
41.48 263.0
41.69 273.0
41.9 256.0
42.11 288.0
42.32 271.0
42.53 256.0
42.74 251.0
42.95 256.0
43.16 258.0
43.37 291.0
43.58 278.0
43.79 278.0
44.0 290.0
44.21 272.0
44.42 251.0
44.63 257.0
44.84 282.0
45.05 266.0
45.26 288.0
45.47 257.0
45.68 247.0
45.89 252.0
46.1 266.0
46.31 252.0
46.52 261.0
46.73 256.0
46.94 251.0
47.15 265.0
47.36 248.0
47.57 261.0
47.78 233.0
47.99 261.0
48.2 233.0
48.41 255.0
48.62 226.0
48.83 267.0
49.04 255.0
49.25 232.0
49.46 256.0
49.67 259.0
49.88 244.0
50.09 239.0
50.3 247.0
50.51 244.0
50.72 230.0
50.93 237.0
51.14 265.0
51.35 246.0
51.56 234.0
51.77 250.0
51.98 235.0
52.19 238.0
52.4 224.0
52.61 223.0
52.82 239.0
53.03 230.0
53.24 232.0
53.45 230.0
53.66 231.0
53.87 202.0
54.08 228.0
54.29 216.0
54.5 209.0
54.71 216.0
54.92 246.0
55.13 231.0
55.34 225.0
55.55 214.0
55.76 219.0
55.97 210.0
56.18 234.0
56.39 220.0
56.6 203.0
56.81 219.0
57.02 224.0
57.23 204.0
57.44 204.0
57.65 238.0
57.86 197.0
58.07 213.0
58.28 189.0
58.49 210.0
58.7 213.0
58.91 208.0
59.12 196.0
59.33 173.0
59.54 213.0
59.75 196.0
59.96 190.0
60.17 177.0
60.38 186.0
60.59 208.0
60.8 196.0
61.01 177.0
61.22 195.0
61.43 193.0
61.64 173.0
61.85 202.0
61.985 180.0

File: HSC010.xy
2.00000 565.000
2.21000 415.000
2.42000 333.000
2.63000 281.000
2.84000 254.000
3.05000 217.000
3.26000 221.000
3.47000 217.000
3.68000 209.000
3.89000 214.000
4.10000 200.000
4.31000 170.000
4.52000 192.000
4.73000 189.000
4.94000 180.000
5.15000 156.000
5.36000 181.000
5.57000 207.000
5.78000 180.000
5.99000 253.000
6.20000 285.000
6.41000 171.000
6.62000 185.000
6.83000 171.000
7.04000 192.000
7.25000 203.000
7.46000 158.000
7.67000 174.000
7.88000 183.000
8.09000 179.000
8.30000 184.000
8.51000 193.000
8.72000 175.000
8.93000 174.000
9.14000 174.000
9.35000 169.000
9.56000 166.000
9.77000 193.000
9.98000 185.000
10.19000 177.000
10.40000 183.000
10.61000 206.000
10.82000 192.000
11.03000 199.000
11.24000 199.000
11.45000 174.000
11.66000 182.000
11.87000 221.000
12.08000 326.000
12.29000 1251.000
12.50000 292.000
12.71000 267.000
12.92000 246.000
13.13000 256.000
13.34000 349.000
13.55000 244.000
13.76000 250.000
13.97000 233.000
14.18000 231.000
14.39000 230.000
14.60000 214.000
14.81000 213.000
15.02000 218.000
15.23000 217.000
15.44000 204.000
15.65000 212.000
15.86000 235.000
16.07000 207.000
16.28000 235.000
16.49000 260.000
16.70000 229.000
16.91000 264.000
17.12000 258.000
17.33000 229.000
17.54000 241.000
17.75000 237.000
17.96000 252.000
18.17000 256.000
18.38000 261.000
18.59000 249.000
18.80000 259.000
19.01000 247.000
19.22000 229.000
19.43000 291.000
19.64000 314.000
19.85000 249.000
20.06000 253.000
20.27000 255.000
20.48000 239.000
20.69000 265.000
20.90000 251.000
21.11000 252.000
21.32000 282.000
21.53000 273.000
21.74000 274.000
21.95000 289.000
22.16000 306.000
22.37000 272.000
22.58000 267.000
22.79000 272.000
23.00000 254.000
23.21000 303.000
23.42000 303.000
23.63000 267.000
23.84000 285.000
24.05000 291.000
24.26000 267.000
24.47000 286.000
24.68000 307.000
24.89000 303.000
25.10000 305.000
25.31000 316.000
25.52000 309.000
25.73000 445.000
25.94000 385.000
26.15000 424.000
26.36000 586.000
26.57000 494.000
26.78000 572.000
26.99000 588.000
27.20000 790.000
27.41000 711.000
27.62000 703.000
27.83000 818.000
28.04000 467.000
28.25000 404.000
28.46000 311.000
28.67000 324.000
28.88000 307.000
29.09000 276.000
29.30000 246.000
29.51000 247.000
29.72000 246.000
29.93000 255.000
30.14000 247.000
30.35000 254.000
30.56000 224.000
30.77000 242.000
30.98000 251.000
31.19000 240.000
31.40000 207.000
31.61000 216.000
31.82000 193.000
32.03000 171.000
32.24000 188.000
32.45000 160.000
32.66000 152.000
32.87000 161.000
33.08000 167.000
33.29000 177.000
33.50000 165.000
33.71000 185.000
33.92000 182.000
34.13000 169.000
34.34000 172.000
34.55000 168.000
34.76000 151.000
34.97000 138.000
35.18000 137.000
35.39000 149.000
35.60000 124.000
35.81000 129.000
36.02000 133.000
36.23000 123.000
36.44000 132.000
36.65000 119.000
36.86000 133.000
37.07000 137.000
37.28000 127.000
37.49000 135.000
37.70000 127.000
37.91000 113.000
38.12000 118.000
38.33000 113.000
38.54000 112.000
38.75000 118.000
38.96000 120.000
39.17000 129.000
39.38000 121.000
39.59000 154.000
39.80000 123.000
40.01000 119.000
40.22000 115.000
40.43000 121.000
40.64000 121.000
40.85000 128.000
41.06000 119.000
41.27000 134.000
41.48000 110.000
41.69000 122.000
41.90000 116.000
42.11000 125.000
42.32000 135.000
42.53000 122.000
42.74000 131.000
42.95000 107.000
43.16000 128.000
43.37000 109.000
43.58000 107.000
43.79000 113.000
44.00000 120.000
44.21000 131.000
44.42000 136.000
44.63000 125.000
44.84000 124.000
45.05000 107.000
45.26000 107.000
45.47000 93.000
45.68000 105.000
45.89000 113.000
46.10000 99.000
46.31000 126.000
46.52000 111.000
46.73000 121.000
46.94000 119.000
47.15000 100.000
47.36000 113.000
47.57000 107.000
47.78000 97.000
47.99000 100.000
48.20000 108.000
48.41000 116.000
48.62000 99.000
48.83000 91.000
49.04000 107.000
49.25000 111.000
49.46000 90.000
49.67000 116.000
49.88000 105.000
50.09000 98.000
50.30000 95.000
50.51000 120.000
50.72000 94.000
50.93000 109.000
51.14000 100.000
51.35000 95.000
51.56000 83.000
51.77000 91.000
51.98000 103.000
52.19000 97.000
52.40000 95.000
52.61000 111.000
52.82000 110.000
53.03000 97.000
53.24000 89.000
53.45000 107.000
53.66000 97.000
53.87000 81.000
54.08000 93.000
54.29000 96.000
54.50000 88.000
54.71000 89.000
54.92000 96.000
55.13000 89.000
55.34000 102.000
55.55000 102.000
55.76000 120.000
55.97000 107.000
56.18000 109.000
56.39000 83.000
56.60000 94.000
56.81000 92.000
57.02000 105.000
57.23000 87.000
57.44000 94.000
57.65000 93.000
57.86000 96.000
58.07000 81.000
58.28000 101.000
58.49000 91.000
58.70000 80.000
58.91000 74.000
59.12000 88.000
59.33000 94.000
59.54000 85.000
59.75000 78.000
59.96000 101.000
60.17000 77.000
60.38000 79.000
60.59000 86.000
60.80000 92.000
61.01000 85.000
61.22000 79.000
61.43000 76.000
61.64000 72.000
61.85000 89.000
61.98500 88.000