Folder: phd-thesis/ISoD/xrd_data (part 17)

File: HSC091.xy
2.00000 1.000
2.21000 0.000
2.42000 1.000
2.63000 1.000
2.84000 1.000
3.05000 1.000
3.26000 27.000
3.47000 37.000
3.68000 33.000
3.89000 35.000
4.10000 38.000
4.31000 42.000
4.52000 45.000
4.73000 32.000
4.94000 42.000
5.15000 50.000
5.36000 40.000
5.57000 43.000
5.78000 43.000
5.99000 44.000
6.20000 43.000
6.41000 42.000
6.62000 45.000
6.83000 43.000
7.04000 51.000
7.25000 48.000
7.46000 47.000
7.67000 53.000
7.88000 50.000
8.09000 56.000
8.30000 53.000
8.51000 51.000
8.72000 56.000
8.93000 54.000
9.14000 50.000
9.35000 61.000
9.56000 68.000
9.77000 58.000
9.98000 58.000
10.19000 51.000
10.40000 41.000
10.61000 45.000
10.82000 48.000
11.03000 54.000
11.24000 68.000
11.45000 249.000
11.66000 59.000
11.87000 53.000
12.08000 53.000
12.29000 58.000
12.50000 67.000
12.71000 54.000
12.92000 57.000
13.13000 48.000
13.34000 62.000
13.55000 67.000
13.76000 67.000
13.97000 49.000
14.18000 73.000
14.39000 67.000
14.60000 64.000
14.81000 58.000
15.02000 61.000
15.23000 82.000
15.44000 116.000
15.65000 62.000
15.86000 55.000
16.07000 62.000
16.28000 74.000
16.49000 62.000
16.70000 61.000
16.91000 65.000
17.12000 68.000
17.33000 56.000
17.54000 63.000
17.75000 70.000
17.96000 68.000
18.17000 72.000
18.38000 105.000
18.59000 57.000
18.80000 64.000
19.01000 78.000
19.22000 71.000
19.43000 66.000
19.64000 66.000
19.85000 70.000
20.06000 73.000
20.27000 89.000
20.48000 80.000
20.69000 81.000
20.90000 78.000
21.11000 107.000
21.32000 81.000
21.53000 95.000
21.74000 118.000
21.95000 106.000
22.16000 85.000
22.37000 93.000
22.58000 202.000
22.79000 113.000
23.00000 1696.000
23.21000 126.000
23.42000 110.000
23.63000 142.000
23.84000 121.000
24.05000 131.000
24.26000 131.000
24.47000 119.000
24.68000 92.000
24.89000 349.000
25.10000 108.000
25.31000 99.000
25.52000 106.000
25.73000 316.000
25.94000 126.000
26.15000 118.000
26.36000 132.000
26.57000 188.000
26.78000 163.000
26.99000 147.000
27.20000 167.000
27.41000 182.000
27.62000 689.000
27.83000 282.000
28.04000 177.000
28.25000 133.000
28.46000 112.000
28.67000 664.000
28.88000 432.000
29.09000 132.000
29.30000 108.000
29.51000 105.000
29.72000 105.000
29.93000 102.000
30.14000 89.000
30.35000 101.000
30.56000 74.000
30.77000 102.000
30.98000 89.000
31.19000 99.000
31.40000 492.000
31.61000 77.000
31.82000 90.000
32.03000 80.000
32.24000 82.000
32.45000 91.000
32.66000 80.000
32.87000 83.000
33.08000 83.000
33.29000 115.000
33.50000 86.000
33.71000 78.000
33.92000 71.000
34.13000 472.000
34.34000 77.000
34.55000 81.000
34.76000 109.000
34.97000 107.000
35.18000 81.000
35.39000 75.000
35.60000 94.000
35.81000 243.000
36.02000 129.000
36.23000 80.000
36.44000 72.000
36.65000 83.000
36.86000 84.000
37.07000 340.000
37.28000 106.000
37.49000 78.000
37.70000 109.000
37.91000 200.000
38.12000 75.000
38.33000 67.000
38.54000 62.000
38.75000 80.000
38.96000 67.000
39.17000 67.000
39.38000 212.000
39.59000 67.000
39.80000 56.000
40.01000 70.000
40.22000 66.000
40.43000 77.000
40.64000 128.000
40.85000 69.000
41.06000 66.000
41.27000 62.000
41.48000 65.000
41.69000 65.000
41.90000 61.000
42.11000 129.000
42.32000 57.000
42.53000 95.000
42.74000 340.000
42.95000 76.000
43.16000 96.000
43.37000 70.000
43.58000 78.000
43.79000 72.000
44.00000 81.000
44.21000 98.000
44.42000 70.000
44.63000 82.000
44.84000 84.000
45.05000 94.000
45.26000 92.000
45.47000 97.000
45.68000 94.000
45.89000 62.000
46.10000 74.000
46.31000 144.000
46.52000 76.000
46.73000 54.000
46.94000 80.000
47.15000 103.000
47.36000 83.000
47.57000 122.000
47.78000 274.000
47.99000 73.000
48.20000 77.000
48.41000 67.000
48.62000 71.000
48.83000 69.000
49.04000 95.000
49.25000 80.000
49.46000 123.000
49.67000 105.000
49.88000 167.000
50.09000 99.000
50.30000 74.000
50.51000 77.000
50.72000 72.000
50.93000 69.000
51.14000 243.000
51.35000 106.000
51.56000 85.000
51.77000 86.000
51.98000 210.000
52.19000 88.000
52.40000 76.000
52.61000 81.000
52.82000 104.000
53.03000 269.000
53.24000 153.000
53.45000 79.000
53.66000 89.000
53.87000 177.000
54.08000 104.000
54.29000 87.000
54.50000 78.000
54.71000 70.000
54.92000 87.000
55.13000 125.000
55.34000 114.000
55.55000 84.000
55.76000 207.000
55.97000 94.000
56.18000 85.000
56.39000 88.000
56.60000 211.000
56.81000 131.000
57.02000 95.000
57.23000 168.000
57.44000 139.000
57.65000 113.000
57.86000 101.000
58.07000 80.000
58.28000 85.000
58.49000 85.000
58.70000 69.000
58.91000 94.000
59.12000 119.000
59.33000 78.000
59.54000 85.000
59.75000 98.000
59.96000 122.000
60.17000 108.000
60.38000 119.000
60.59000 101.000
60.80000 81.000
61.01000 89.000
61.22000 71.000
61.43000 95.000
61.64000 132.000
61.85000 86.000
61.98500 73.000

File: HSC091_gew.xy
2.00000 1.000
2.21000 1.000
2.42000 4.000
2.63000 5.000
2.84000 4.000
3.05000 4.000
3.26000 352.000
3.47000 441.000
3.68000 365.000
3.89000 338.000
4.10000 328.000
4.31000 326.000
4.52000 291.000
4.73000 279.000
4.94000 280.000
5.15000 265.000
5.36000 264.000
5.57000 276.000
5.78000 245.000
5.99000 264.000
6.20000 285.000
6.41000 229.000
6.62000 253.000
6.83000 261.000
7.04000 270.000
7.25000 284.000
7.46000 279.000
7.67000 277.000
7.88000 328.000
8.09000 359.000
8.30000 345.000
8.51000 302.000
8.72000 306.000
8.93000 306.000
9.14000 289.000
9.35000 313.000
9.56000 266.000
9.77000 306.000
9.98000 319.000
10.19000 289.000
10.40000 310.000
10.61000 277.000
10.82000 294.000
11.03000 305.000
11.24000 279.000
11.45000 283.000
11.66000 291.000
11.87000 318.000
12.08000 301.000
12.29000 306.000
12.50000 306.000
12.71000 289.000
12.92000 305.000
13.13000 296.000
13.34000 324.000
13.55000 286.000
13.76000 321.000
13.97000 329.000
14.18000 357.000
14.39000 338.000
14.60000 338.000
14.81000 338.000
15.02000 312.000
15.23000 329.000
15.44000 335.000
15.65000 327.000
15.86000 338.000
16.07000 358.000
16.28000 317.000
16.49000 379.000
16.70000 362.000
16.91000 352.000
17.12000 338.000
17.33000 355.000
17.54000 336.000
17.75000 357.000
17.96000 300.000
18.17000 347.000
18.38000 324.000
18.59000 282.000
18.80000 313.000
19.01000 323.000
19.22000 308.000
19.43000 361.000
19.64000 362.000
19.85000 319.000
20.06000 335.000
20.27000 332.000
20.48000 345.000
20.69000 330.000
20.90000 345.000
21.11000 374.000
21.32000 414.000
21.53000 346.000
21.74000 370.000
21.95000 359.000
22.16000 378.000
22.37000 364.000
22.58000 428.000
22.79000 389.000
23.00000 395.000
23.21000 453.000
23.42000 397.000
23.63000 416.000
23.84000 473.000
24.05000 427.000
24.26000 474.000
24.47000 442.000
24.68000 469.000
24.89000 465.000
25.10000 467.000
25.31000 486.000
25.52000 463.000
25.73000 546.000
25.94000 501.000
26.15000 546.000
26.36000 558.000
26.57000 580.000
26.78000 643.000
26.99000 728.000
27.20000 843.000
27.41000 1144.000
27.62000 1563.000
27.83000 2056.000
28.04000 1354.000
28.25000 812.000
28.46000 658.000
28.67000 589.000
28.88000 499.000
29.09000 503.000
29.30000 502.000
29.51000 499.000
29.72000 517.000
29.93000 473.000
30.14000 441.000
30.35000 405.000
30.56000 439.000
30.77000 516.000
30.98000 435.000
31.19000 411.000
31.40000 397.000
31.61000 340.000
31.82000 341.000
32.03000 339.000
32.24000 320.000
32.45000 362.000
32.66000 386.000
32.87000 334.000
33.08000 302.000
33.29000 286.000
33.50000 314.000
33.71000 304.000
33.92000 311.000
34.13000 275.000
34.34000 285.000
34.55000 290.000
34.76000 293.000
34.97000 259.000
35.18000 319.000
35.39000 329.000
35.60000 287.000
35.81000 329.000
36.02000 307.000
36.23000 297.000
36.44000 292.000
36.65000 288.000
36.86000 270.000
37.07000 323.000
37.28000 300.000
37.49000 309.000
37.70000 254.000
37.91000 260.000
38.12000 267.000
38.33000 253.000
38.54000 254.000
38.75000 256.000
38.96000 280.000
39.17000 268.000
39.38000 279.000
39.59000 257.000
39.80000 248.000
40.01000 246.000
40.22000 262.000
40.43000 265.000
40.64000 233.000
40.85000 257.000
41.06000 249.000
41.27000 262.000
41.48000 232.000
41.69000 257.000
41.90000 224.000
42.11000 223.000
42.32000 219.000
42.53000 222.000
42.74000 249.000
42.95000 251.000
43.16000 266.000
43.37000 263.000
43.58000 282.000
43.79000 248.000
44.00000 241.000
44.21000 257.000
44.42000 246.000
44.63000 247.000
44.84000 250.000
45.05000 235.000
45.26000 226.000
45.47000 253.000
45.68000 225.000
45.89000 215.000
46.10000 213.000
46.31000 215.000
46.52000 211.000
46.73000 222.000
46.94000 205.000
47.15000 209.000
47.36000 218.000
47.57000 206.000
47.78000 193.000
47.99000 202.000
48.20000 193.000
48.41000 203.000
48.62000 210.000
48.83000 197.000
49.04000 190.000
49.25000 179.000
49.46000 190.000
49.67000 199.000
49.88000 186.000
50.09000 187.000
50.30000 198.000
50.51000 191.000
50.72000 199.000
50.93000 193.000
51.14000 195.000
51.35000 184.000
51.56000 184.000
51.77000 185.000
51.98000 181.000
52.19000 174.000
52.40000 195.000
52.61000 163.000
52.82000 190.000
53.03000 170.000
53.24000 202.000
53.45000 167.000
53.66000 202.000
53.87000 185.000
54.08000 195.000
54.29000 184.000
54.50000 170.000
54.71000 188.000
54.92000 174.000
55.13000 183.000
55.34000 175.000
55.55000 184.000
55.76000 174.000
55.97000 191.000
56.18000 177.000
56.39000 195.000
56.60000 170.000
56.81000 185.000
57.02000 191.000
57.23000 201.000
57.44000 212.000
57.65000 205.000
57.86000 179.000
58.07000 182.000
58.28000 175.000
58.49000 176.000
58.70000 188.000
58.91000 157.000
59.12000 151.000
59.33000 147.000
59.54000 161.000
59.75000 142.000
59.96000 148.000
60.17000 149.000
60.38000 136.000
60.59000 154.000
60.80000 145.000
61.01000 158.000
61.22000 156.000
61.43000 154.000
61.64000 161.000
61.85000 140.000
61.98500 174.000

File: HSC092.xy
2.00000 6.000
2.21000 5.000
2.42000 3.000
2.63000 5.000
2.84000 3.000
3.05000 7.000
3.26000 454.000
3.47000 419.000
3.68000 396.000
3.89000 384.000
4.10000 378.000
4.31000 359.000
4.52000 362.000
4.73000 353.000
4.94000 398.000
5.15000 361.000
5.36000 379.000
5.57000 393.000
5.78000 387.000
5.99000 405.000
6.20000 387.000
6.41000 415.000
6.62000 407.000
6.83000 388.000
7.04000 406.000
7.25000 400.000
7.46000 414.000
7.67000 408.000
7.88000 422.000
8.09000 415.000
8.30000 435.000
8.51000 444.000
8.72000 474.000
8.93000 437.000
9.14000 418.000
9.35000 449.000
9.56000 439.000
9.77000 455.000
9.98000 461.000
10.19000 481.000
10.40000 455.000
10.61000 470.000
10.82000 462.000
11.03000 470.000
11.24000 485.000
11.45000 479.000
11.66000 524.000
11.87000 618.000
12.08000 876.000
12.29000 593.000
12.50000 555.000
12.71000 647.000
12.92000 610.000
13.13000 563.000
13.34000 603.000
13.55000 557.000
13.76000 571.000
13.97000 594.000
14.18000 620.000
14.39000 616.000
14.60000 569.000
14.81000 592.000
15.02000 568.000
15.23000 595.000
15.44000 583.000
15.65000 609.000
15.86000 588.000
16.07000 586.000
16.28000 567.000
16.49000 570.000
16.70000 575.000
16.91000 576.000
17.12000 590.000
17.33000 569.000
17.54000 599.000
17.75000 594.000
17.96000 588.000
18.17000 585.000
18.38000 574.000
18.59000 613.000
18.80000 573.000
19.01000 564.000
19.22000 634.000
19.43000 577.000
19.64000 551.000
19.85000 594.000
20.06000 590.000
20.27000 592.000
20.48000 629.000
20.69000 632.000
20.90000 911.000
21.11000 990.000
21.32000 705.000
21.53000 583.000
21.74000 625.000
21.95000 622.000
22.16000 608.000
22.37000 600.000
22.58000 586.000
22.79000 585.000
23.00000 543.000
23.21000 572.000
23.42000 610.000
23.63000 611.000
23.84000 610.000
24.05000 587.000
24.26000 825.000
24.47000 692.000
24.68000 715.000
24.89000 697.000
25.10000 647.000
25.31000 621.000
25.52000 645.000
25.73000 672.000
25.94000 752.000
26.15000 1304.000
26.36000 1592.000
26.57000 1028.000
26.78000 853.000
26.99000 924.000
27.20000 1164.000
27.41000 1657.000
27.62000 2723.000
27.83000 3255.000
28.04000 2063.000
28.25000 1117.000
28.46000 844.000
28.67000 917.000
28.88000 1249.000
29.09000 1349.000
29.30000 926.000
29.51000 746.000
29.72000 589.000
29.93000 512.000
30.14000 512.000
30.35000 514.000
30.56000 514.000
30.77000 504.000
30.98000 465.000
31.19000 485.000
31.40000 481.000
31.61000 446.000
31.82000 470.000
32.03000 478.000
32.24000 676.000
32.45000 746.000
32.66000 480.000
32.87000 399.000
33.08000 419.000
33.29000 388.000
33.50000 359.000
33.71000 396.000
33.92000 353.000
34.13000 340.000
34.34000 372.000
34.55000 353.000
34.76000 382.000
34.97000 368.000
35.18000 365.000
35.39000 332.000
35.60000 337.000
35.81000 369.000
36.02000 377.000
36.23000 339.000
36.44000 339.000
36.65000 325.000
36.86000 304.000
37.07000 295.000
37.28000 293.000
37.49000 286.000
37.70000 308.000
37.91000 269.000
38.12000 276.000
38.33000 274.000
38.54000 272.000
38.75000 263.000
38.96000 276.000
39.17000 287.000
39.38000 263.000
39.59000 277.000
39.80000 277.000
40.01000 238.000
40.22000 280.000
40.43000 286.000
40.64000 255.000
40.85000 262.000
41.06000 290.000
41.27000 304.000
41.48000 269.000
41.69000 264.000
41.90000 288.000
42.11000 286.000
42.32000 267.000
42.53000 295.000
42.74000 373.000
42.95000 322.000
43.16000 293.000
43.37000 249.000
43.58000 281.000
43.79000 288.000
44.00000 263.000
44.21000 302.000
44.42000 326.000
44.63000 381.000
44.84000 398.000
45.05000 322.000
45.26000 283.000
45.47000 282.000
45.68000 317.000
45.89000 304.000
46.10000 303.000
46.31000 287.000
46.52000 305.000
46.73000 306.000
46.94000 311.000
47.15000 273.000
47.36000 235.000
47.57000 242.000
47.78000 232.000
47.99000 250.000
48.20000 220.000
48.41000 251.000
48.62000 232.000
48.83000 214.000
49.04000 259.000
49.25000 238.000
49.46000 207.000
49.67000 267.000
49.88000 233.000
50.09000 260.000
50.30000 266.000
50.51000 301.000
50.72000 322.000
50.93000 325.000
51.14000 302.000
51.35000 292.000
51.56000 231.000
51.77000 243.000
51.98000 237.000
52.19000 218.000
52.40000 207.000
52.61000 232.000
52.82000 215.000
53.03000 220.000
53.24000 212.000
53.45000 225.000
53.66000 221.000
53.87000 238.000
54.08000 271.000
54.29000 275.000
54.50000 289.000
54.71000 285.000
54.92000 204.000
55.13000 191.000
55.34000 188.000
55.55000 199.000
55.76000 196.000
55.97000 208.000
56.18000 196.000
56.39000 203.000
56.60000 213.000
56.81000 223.000
57.02000 235.000
57.23000 259.000
57.44000 243.000
57.65000 258.000
57.86000 254.000
58.07000 228.000
58.28000 213.000
58.49000 220.000
58.70000 202.000
58.91000 207.000
59.12000 219.000
59.33000 183.000
59.54000 192.000
59.75000 191.000
59.96000 181.000
60.17000 177.000
60.38000 199.000
60.59000 181.000
60.80000 197.000
61.01000 192.000
61.22000 191.000
61.43000 187.000
61.64000 185.000
61.85000 177.000
61.98500 157.000

File: HSC093.xy
2.00000 4.000
2.21000 6.000
2.42000 4.000
2.63000 4.000
2.84000 6.000
3.05000 1550.000
3.26000 1943.000
3.47000 1844.000
3.68000 1745.000
3.89000 1633.000
4.10000 1571.000
4.31000 1497.000
4.52000 1400.000
4.73000 1360.000
4.94000 1231.000
5.15000 1217.000
5.36000 1186.000
5.57000 1108.000
5.78000 1136.000
5.99000 1048.000
6.20000 1019.000
6.41000 999.000
6.62000 978.000
6.83000 914.000
7.04000 921.000
7.25000 917.000
7.46000 922.000
7.67000 895.000
7.88000 798.000
8.09000 829.000
8.30000 845.000
8.51000 833.000
8.72000 781.000
8.93000 821.000
9.14000 757.000
9.35000 749.000
9.56000 791.000
9.77000 683.000
9.98000 745.000
10.19000 743.000
10.40000 743.000
10.61000 767.000
10.82000 738.000
11.03000 711.000
11.24000 762.000
11.45000 736.000
11.66000 742.000
11.87000 751.000
12.08000 750.000
12.29000 745.000
12.50000 740.000
12.71000 747.000
12.92000 753.000
13.13000 746.000
13.34000 749.000
13.55000 756.000
13.76000 754.000
13.97000 751.000
14.18000 757.000
14.39000 816.000
14.60000 753.000
14.81000 830.000
15.02000 809.000
15.23000 828.000
15.44000 802.000
15.65000 816.000
15.86000 833.000
16.07000 824.000
16.28000 850.000
16.49000 836.000
16.70000 876.000
16.91000 832.000
17.12000 856.000
17.33000 885.000
17.54000 924.000
17.75000 927.000
17.96000 904.000
18.17000 905.000
18.38000 891.000
18.59000 904.000
18.80000 921.000
19.01000 930.000
19.22000 914.000
19.43000 944.000
19.64000 941.000
19.85000 922.000
20.06000 986.000
20.27000 950.000
20.48000 973.000
20.69000 1031.000
20.90000 981.000
21.11000 971.000
21.32000 959.000
21.53000 967.000
21.74000 1037.000
21.95000 1034.000
22.16000 987.000
22.37000 975.000
22.58000 960.000
22.79000 965.000
23.00000 961.000
23.21000 995.000
23.42000 962.000
23.63000 974.000
23.84000 912.000
24.05000 973.000
24.26000 965.000
24.47000 927.000
24.68000 964.000
24.89000 933.000
25.10000 919.000
25.31000 901.000
25.52000 896.000
25.73000 890.000
25.94000 810.000
26.15000 887.000
26.36000 811.000
26.57000 862.000
26.78000 795.000
26.99000 822.000
27.20000 796.000
27.41000 759.000
27.62000 722.000
27.83000 707.000
28.04000 715.000
28.25000 692.000
28.46000 704.000
28.67000 674.000
28.88000 670.000
29.09000 690.000
29.30000 629.000
29.51000 622.000
29.72000 638.000
29.93000 623.000
30.14000 556.000
30.35000 576.000
30.56000 577.000
30.77000 576.000
30.98000 561.000
31.19000 534.000
31.40000 541.000
31.61000 519.000
31.82000 484.000
32.03000 492.000
32.24000 484.000
32.45000 506.000
32.66000 492.000
32.87000 456.000
33.08000 449.000
33.29000 456.000
33.50000 450.000
33.71000 448.000
33.92000 453.000
34.13000 421.000
34.34000 414.000
34.55000 405.000
34.76000 386.000
34.97000 414.000
35.18000 404.000
35.39000 426.000
35.60000 378.000
35.81000 390.000
36.02000 371.000
36.23000 352.000
36.44000 350.000
36.65000 357.000
36.86000 354.000
37.07000 374.000
37.28000 329.000
37.49000 333.000
37.70000 344.000
37.91000 341.000
38.12000 340.000
38.33000 329.000
38.54000 356.000
38.75000 348.000
38.96000 365.000
39.17000 334.000
39.38000 334.000
39.59000 364.000
39.80000 328.000
40.01000 333.000
40.22000 345.000
40.43000 349.000
40.64000 329.000
40.85000 332.000
41.06000 345.000
41.27000 325.000
41.48000 352.000
41.69000 330.000
41.90000 355.000
42.11000 358.000
42.32000 346.000
42.53000 328.000
42.74000 341.000
42.95000 316.000
43.16000 312.000
43.37000 341.000
43.58000 337.000
43.79000 328.000
44.00000 354.000
44.21000 322.000
44.42000 307.000
44.63000 309.000
44.84000 332.000
45.05000 318.000
45.26000 327.000
45.47000 325.000
45.68000 319.000
45.89000 296.000
46.10000 318.000
46.31000 298.000
46.52000 293.000
46.73000 312.000
46.94000 299.000
47.15000 287.000
47.36000 287.000
47.57000 277.000
47.78000 283.000
47.99000 319.000
48.20000 294.000
48.41000 271.000
48.62000 288.000
48.83000 269.000
49.04000 283.000
49.25000 263.000
49.46000 283.000
49.67000 277.000
49.88000 248.000
50.09000 286.000
50.30000 249.000
50.51000 254.000
50.72000 276.000
50.93000 248.000
51.14000 264.000
51.35000 249.000
51.56000 271.000
51.77000 254.000
51.98000 228.000
52.19000 264.000
52.40000 227.000
52.61000 233.000
52.82000 281.000
53.03000 262.000
53.24000 229.000
53.45000 236.000
53.66000 240.000
53.87000 229.000
54.08000 243.000
54.29000 222.000
54.50000 225.000
54.71000 210.000
54.92000 216.000
55.13000 249.000
55.34000 242.000
55.55000 247.000
55.76000 210.000
55.97000 229.000
56.18000 230.000
56.39000 218.000
56.60000 208.000
56.81000 219.000
57.02000 237.000
57.23000 214.000
57.44000 200.000
57.65000 227.000
57.86000 237.000
58.07000 192.000
58.28000 206.000
58.49000 221.000
58.70000 197.000
58.91000 215.000
59.12000 215.000
59.33000 221.000
59.54000 202.000
59.75000 195.000
59.96000 209.000
60.17000 211.000
60.38000 216.000
60.59000 194.000
60.80000 194.000
61.01000 165.000
61.22000 189.000
61.43000 206.000
61.64000 187.000
61.85000 194.000
61.98500 205.000

File: HSC094_gew_range_1.xy
2.00000 6.000
2.21000 4.000
2.42000 4.000
2.63000 4.000
2.84000 4.000
3.05000 19.000
3.26000 240.000
3.47000 208.000
3.68000 188.000
3.89000 173.000
4.10000 179.000
4.31000 179.000
4.52000 173.000
4.73000 173.000
4.94000 164.000
5.15000 168.000
5.36000 174.000
5.57000 169.000
5.78000 186.000
5.99000 158.000
6.20000 179.000
6.41000 159.000
6.62000 183.000
6.83000 205.000
7.04000 191.000
7.25000 182.000
7.46000 198.000
7.67000 217.000
7.88000 202.000
8.09000 204.000
8.30000 218.000
8.51000 247.000
8.72000 332.000
8.93000 1370.000
9.14000 355.000
9.35000 236.000
9.56000 219.000
9.77000 197.000
9.98000 246.000
10.19000 246.000
10.40000 576.000
10.61000 1090.000
10.82000 358.000
11.03000 202.000
11.24000 256.000
11.45000 472.000
11.66000 3965.000
11.87000 511.000
12.08000 271.000
12.29000 251.000
12.50000 222.000
12.71000 225.000
12.92000 767.000
13.13000 437.000
13.34000 1014.000
13.55000 230.000
13.76000 211.000
13.97000 280.000
14.18000 223.000
14.39000 205.000
14.60000 221.000
14.81000 368.000
15.02000 2710.000
15.23000 221.000
15.44000 277.000
15.65000 261.000
15.86000 248.000
16.07000 836.000
16.28000 264.000
16.49000 310.000
16.70000 1249.000
16.91000 232.000
17.12000 206.000
17.33000 213.000
17.54000 210.000
17.75000 248.000
17.96000 511.000
18.17000 751.000
18.38000 257.000
18.59000 242.000
18.80000 259.000
19.01000 213.000
19.22000 216.000
19.43000 270.000
19.64000 2111.000
19.85000 224.000
20.06000 231.000
20.27000 524.000
20.48000 262.000
20.69000 424.000
20.90000 305.000
21.11000 893.000
21.32000 571.000
21.53000 2937.000
21.74000 846.000
21.95000 404.000
22.16000 313.000
22.37000 425.000
22.58000 364.000
22.79000 411.000
23.00000 258.000
23.21000 267.000
23.42000 459.000
23.63000 278.000
23.84000 243.000
24.05000 251.000
24.26000 221.000
24.47000 249.000
24.68000 240.000
24.89000 258.000
25.10000 239.000
25.31000 231.000
25.52000 218.000
25.73000 192.000
25.94000 241.000
26.15000 459.000
26.36000 259.000
26.57000 264.000
26.78000 722.000
26.99000 425.000
27.20000 586.000
27.41000 354.000
27.62000 1502.000
27.83000 432.000
28.04000 392.000
28.25000 258.000
28.46000 349.000
28.67000 510.000
28.88000 378.000
29.09000 375.000
29.30000 234.000
29.51000 250.000
29.72000 229.000
29.93000 251.000
30.14000 445.000
30.35000 2108.000
30.56000 307.000
30.77000 234.000
30.98000 255.000
31.19000 309.000
31.40000 313.000
31.61000 631.000
31.82000 2558.000
32.03000 509.000
32.24000 300.000
32.45000 765.000
32.66000 499.000
32.87000 271.000
33.08000 213.000
33.29000 278.000
33.50000 368.000
33.71000 308.000
33.92000 194.000
34.13000 182.000
34.34000 188.000
34.55000 198.000
34.76000 193.000
34.97000 234.000
35.18000 285.000
35.39000 332.000
35.60000 702.000
35.81000 225.000
36.02000 231.000
36.23000 836.000
36.44000 278.000
36.65000 344.000
36.86000 295.000
37.07000 199.000
37.28000 282.000
37.49000 1046.000
37.70000 518.000
37.91000 221.000
38.12000 175.000
38.33000 204.000
38.54000 250.000
38.75000 161.000
38.96000 149.000
39.17000 168.000
39.38000 208.000
39.59000 183.000
39.80000 403.000
40.01000 278.000
40.22000 169.000
40.43000 227.000
40.64000 180.000
40.85000 521.000
41.06000 264.000
41.27000 324.000
41.48000 205.000
41.69000 258.000
41.90000 509.000
42.11000 316.000
42.32000 275.000
42.53000 255.000
42.74000 648.000
42.95000 390.000
43.16000 316.000
43.37000 513.000
43.58000 378.000
43.79000 245.000
44.00000 382.000
44.21000 271.000
44.42000 182.000
44.63000 434.000
44.84000 335.000
45.05000 205.000
45.26000 269.000
45.47000 843.000
45.68000 375.000
45.89000 286.000
46.10000 251.000
46.31000 223.000
46.52000 271.000
46.73000 535.000
46.94000 469.000
47.15000 244.000
47.36000 220.000
47.57000 667.000
47.78000 228.000
47.99000 536.000
48.20000 382.000
48.41000 376.000
48.62000 353.000
48.83000 329.000
49.04000 242.000
49.25000 244.000
49.46000 166.000
49.67000 171.000
49.88000 425.000
50.09000 289.000
50.30000 205.000
50.51000 222.000
50.72000 322.000
50.93000 499.000
51.14000 192.000
51.35000 167.000
51.56000 197.000
51.77000 237.000
51.98000 232.000
52.19000 160.000
52.40000 151.000
52.61000 201.000
52.82000 434.000
53.03000 229.000
53.24000 210.000
53.45000 185.000
53.66000 164.000
53.87000 150.000
54.08000 164.000
54.29000 169.000
54.50000 245.000
54.71000 346.000
54.92000 359.000
55.13000 324.000
55.34000 501.000
55.55000 326.000
55.76000 184.000
55.97000 216.000
56.18000 298.000
56.39000 252.000
56.60000 318.000
56.81000 309.000
57.02000 253.000
57.23000 241.000
57.44000 210.000
57.65000 216.000
57.86000 173.000
58.07000 305.000
58.28000 273.000
58.49000 238.000
58.70000 197.000
58.91000 221.000
59.12000 160.000
59.33000 164.000
59.54000 278.000
59.75000 219.000
59.96000 265.000
60.17000 423.000
60.38000 230.000
60.59000 177.000
60.80000 160.000
61.01000 250.000
61.22000 238.000
61.43000 301.000
61.64000 171.000
61.85000 159.000
61.98500 237.000