Folder: phd-thesis/ISoD/xrd_data (part 20)

File: HSC196_NM_range_5.xy
2.00000 5.000
2.21000 9.000
2.42000 3.000
2.63000 1.000
2.84000 115.000
3.05000 283.000
3.26000 285.000
3.47000 293.000
3.68000 304.000
3.89000 327.000
4.10000 312.000
4.31000 326.000
4.52000 387.000
4.73000 339.000
4.94000 364.000
5.15000 381.000
5.36000 407.000
5.57000 374.000
5.78000 440.000
5.99000 458.000
6.20000 400.000
6.41000 426.000
6.62000 423.000
6.83000 453.000
7.04000 424.000
7.25000 454.000
7.46000 469.000
7.67000 605.000
7.88000 1192.000
8.09000 755.000
8.30000 566.000
8.51000 536.000
8.72000 554.000
8.93000 511.000
9.14000 504.000
9.35000 533.000
9.56000 512.000
9.77000 615.000
9.98000 876.000
10.19000 815.000
10.40000 569.000
10.61000 565.000
10.82000 544.000
11.03000 491.000
11.24000 521.000
11.45000 490.000
11.66000 477.000
11.87000 492.000
12.08000 503.000
12.29000 472.000
12.50000 475.000
12.71000 504.000
12.92000 458.000
13.13000 510.000
13.34000 491.000
13.55000 493.000
13.76000 466.000
13.97000 487.000
14.18000 454.000
14.39000 488.000
14.60000 486.000
14.81000 494.000
15.02000 530.000
15.23000 606.000
15.44000 490.000
15.65000 500.000
15.86000 489.000
16.07000 474.000
16.28000 473.000
16.49000 499.000
16.70000 480.000
16.91000 469.000
17.12000 504.000
17.33000 483.000
17.54000 497.000
17.75000 484.000
17.96000 436.000
18.17000 505.000
18.38000 529.000
18.59000 683.000
18.80000 580.000
19.01000 524.000
19.22000 511.000
19.43000 502.000
19.64000 504.000
19.85000 536.000
20.06000 485.000
20.27000 504.000
20.48000 534.000
20.69000 531.000
20.90000 551.000
21.11000 520.000
21.32000 564.000
21.53000 551.000
21.74000 589.000
21.95000 656.000
22.16000 709.000
22.37000 665.000
22.58000 661.000
22.79000 766.000
23.00000 888.000
23.21000 741.000
23.42000 657.000
23.63000 624.000
23.84000 672.000
24.05000 726.000
24.26000 653.000
24.47000 741.000
24.68000 806.000
24.89000 786.000
25.10000 763.000
25.31000 800.000
25.52000 853.000
25.73000 933.000
25.94000 834.000
26.15000 804.000
26.36000 818.000
26.57000 893.000
26.78000 875.000
26.99000 997.000
27.20000 1015.000
27.41000 1293.000
27.62000 2574.000
27.83000 3236.000
28.04000 2467.000
28.25000 1761.000
28.46000 1319.000
28.67000 1031.000
28.88000 941.000
29.09000 950.000
29.30000 785.000
29.51000 733.000
29.72000 748.000
29.93000 755.000
30.14000 742.000
30.35000 834.000
30.56000 787.000
30.77000 714.000
30.98000 672.000
31.19000 665.000
31.40000 637.000
31.61000 623.000
31.82000 659.000
32.03000 645.000
32.24000 718.000
32.45000 689.000
32.66000 535.000
32.87000 486.000
33.08000 503.000
33.29000 447.000
33.50000 452.000
33.71000 422.000
33.92000 458.000
34.13000 447.000
34.34000 446.000
34.55000 432.000
34.76000 433.000
34.97000 434.000
35.18000 518.000
35.39000 698.000
35.60000 592.000
35.81000 529.000
36.02000 474.000
36.23000 509.000
36.44000 558.000
36.65000 542.000
36.86000 470.000
37.07000 488.000
37.28000 516.000
37.49000 546.000
37.70000 489.000
37.91000 475.000
38.12000 465.000
38.33000 458.000
38.54000 438.000
38.75000 453.000
38.96000 437.000
39.17000 390.000
39.38000 380.000
39.59000 395.000
39.80000 394.000
40.01000 454.000
40.22000 435.000
40.43000 434.000
40.64000 389.000
40.85000 374.000
41.06000 371.000
41.27000 372.000
41.48000 340.000
41.69000 358.000
41.90000 365.000
42.11000 371.000
42.32000 367.000
42.53000 357.000
42.74000 361.000
42.95000 379.000
43.16000 512.000
43.37000 553.000
43.58000 459.000
43.79000 381.000
44.00000 378.000
44.21000 399.000
44.42000 467.000
44.63000 430.000
44.84000 397.000
45.05000 377.000
45.26000 394.000
45.47000 377.000
45.68000 412.000
45.89000 384.000
46.10000 381.000
46.31000 382.000
46.52000 343.000
46.73000 340.000
46.94000 351.000
47.15000 346.000
47.36000 290.000
47.57000 283.000
47.78000 301.000
47.99000 325.000
48.20000 266.000
48.41000 294.000
48.62000 264.000
48.83000 265.000
49.04000 262.000
49.25000 279.000
49.46000 273.000
49.67000 270.000
49.88000 270.000
50.09000 286.000
50.30000 282.000
50.51000 300.000
50.72000 289.000
50.93000 267.000
51.14000 292.000
51.35000 270.000
51.56000 308.000
51.77000 288.000
51.98000 267.000
52.19000 270.000
52.40000 277.000
52.61000 283.000
52.82000 324.000
53.03000 302.000
53.24000 288.000
53.45000 248.000
53.66000 261.000
53.87000 288.000
54.08000 258.000
54.29000 264.000
54.50000 263.000
54.71000 260.000
54.92000 243.000
55.13000 263.000
55.34000 235.000
55.55000 233.000
55.76000 263.000
55.97000 235.000
56.18000 247.000
56.39000 247.000
56.60000 241.000
56.81000 244.000
57.02000 261.000
57.23000 295.000
57.44000 294.000
57.65000 287.000
57.86000 291.000
58.07000 276.000
58.28000 275.000
58.49000 271.000
58.70000 266.000
58.91000 248.000
59.12000 235.000
59.33000 245.000
59.54000 255.000
59.75000 253.000
59.96000 234.000
60.17000 240.000
60.38000 232.000
60.59000 253.000
60.80000 240.000
61.01000 230.000
61.22000 242.000
61.43000 220.000
61.64000 232.000
61.85000 216.000
61.98500 229.000

File: HSC196_NM_range_7.xy
2.00000 6.000
2.21000 6.000
2.42000 4.000
2.63000 4.000
2.84000 129.000
3.05000 263.000
3.26000 270.000
3.47000 298.000
3.68000 319.000
3.89000 289.000
4.10000 322.000
4.31000 355.000
4.52000 359.000
4.73000 341.000
4.94000 362.000
5.15000 394.000
5.36000 406.000
5.57000 424.000
5.78000 436.000
5.99000 424.000
6.20000 420.000
6.41000 421.000
6.62000 460.000
6.83000 443.000
7.04000 452.000
7.25000 483.000
7.46000 457.000
7.67000 572.000
7.88000 1203.000
8.09000 803.000
8.30000 570.000
8.51000 548.000
8.72000 491.000
8.93000 558.000
9.14000 523.000
9.35000 531.000
9.56000 570.000
9.77000 614.000
9.98000 835.000
10.19000 834.000
10.40000 575.000
10.61000 518.000
10.82000 543.000
11.03000 527.000
11.24000 505.000
11.45000 514.000
11.66000 506.000
11.87000 496.000
12.08000 498.000
12.29000 475.000
12.50000 489.000
12.71000 487.000
12.92000 509.000
13.13000 485.000
13.34000 513.000
13.55000 485.000
13.76000 514.000
13.97000 529.000
14.18000 477.000
14.39000 478.000
14.60000 516.000
14.81000 499.000
15.02000 560.000
15.23000 585.000
15.44000 512.000
15.65000 508.000
15.86000 474.000
16.07000 454.000
16.28000 496.000
16.49000 504.000
16.70000 462.000
16.91000 477.000
17.12000 486.000
17.33000 491.000
17.54000 506.000
17.75000 500.000
17.96000 518.000
18.17000 524.000
18.38000 573.000
18.59000 647.000
18.80000 580.000
19.01000 541.000
19.22000 543.000
19.43000 503.000
19.64000 530.000
19.85000 519.000
20.06000 535.000
20.27000 530.000
20.48000 555.000
20.69000 545.000
20.90000 583.000
21.11000 554.000
21.32000 631.000
21.53000 547.000
21.74000 629.000
21.95000 691.000
22.16000 713.000
22.37000 671.000
22.58000 672.000
22.79000 764.000
23.00000 853.000
23.21000 729.000
23.42000 654.000
23.63000 627.000
23.84000 671.000
24.05000 728.000
24.26000 710.000
24.47000 826.000
24.68000 779.000
24.89000 775.000
25.10000 738.000
25.31000 807.000
25.52000 878.000
25.73000 881.000
25.94000 819.000
26.15000 877.000
26.36000 855.000
26.57000 879.000
26.78000 924.000
26.99000 990.000
27.20000 1042.000
27.41000 1321.000
27.62000 2604.000
27.83000 3259.000
28.04000 2453.000
28.25000 1783.000
28.46000 1283.000
28.67000 1099.000
28.88000 911.000
29.09000 996.000
29.30000 835.000
29.51000 826.000
29.72000 786.000
29.93000 750.000
30.14000 719.000
30.35000 826.000
30.56000 803.000
30.77000 767.000
30.98000 689.000
31.19000 642.000
31.40000 640.000
31.61000 626.000
31.82000 681.000
32.03000 657.000
32.24000 709.000
32.45000 768.000
32.66000 556.000
32.87000 489.000
33.08000 491.000
33.29000 455.000
33.50000 442.000
33.71000 443.000
33.92000 458.000
34.13000 452.000
34.34000 448.000
34.55000 430.000
34.76000 441.000
34.97000 432.000
35.18000 506.000
35.39000 754.000
35.60000 620.000
35.81000 487.000
36.02000 505.000
36.23000 539.000
36.44000 563.000
36.65000 519.000
36.86000 482.000
37.07000 450.000
37.28000 509.000
37.49000 524.000
37.70000 506.000
37.91000 466.000
38.12000 470.000
38.33000 409.000
38.54000 487.000
38.75000 479.000
38.96000 444.000
39.17000 408.000
39.38000 378.000
39.59000 396.000
39.80000 411.000
40.01000 454.000
40.22000 425.000
40.43000 467.000
40.64000 433.000
40.85000 407.000
41.06000 394.000
41.27000 398.000
41.48000 361.000
41.69000 351.000
41.90000 347.000
42.11000 347.000
42.32000 373.000
42.53000 347.000
42.74000 349.000
42.95000 402.000
43.16000 531.000
43.37000 571.000
43.58000 444.000
43.79000 409.000
44.00000 383.000
44.21000 408.000
44.42000 444.000
44.63000 400.000
44.84000 420.000
45.05000 410.000
45.26000 415.000
45.47000 377.000
45.68000 394.000
45.89000 386.000
46.10000 375.000
46.31000 360.000
46.52000 336.000
46.73000 341.000
46.94000 366.000
47.15000 316.000
47.36000 338.000
47.57000 272.000
47.78000 286.000
47.99000 285.000
48.20000 294.000
48.41000 282.000
48.62000 283.000
48.83000 291.000
49.04000 279.000
49.25000 281.000
49.46000 280.000
49.67000 271.000
49.88000 267.000
50.09000 326.000
50.30000 284.000
50.51000 280.000
50.72000 278.000
50.93000 272.000
51.14000 292.000
51.35000 302.000
51.56000 305.000
51.77000 282.000
51.98000 295.000
52.19000 280.000
52.40000 279.000
52.61000 295.000
52.82000 271.000
53.03000 287.000
53.24000 288.000
53.45000 259.000
53.66000 256.000
53.87000 296.000
54.08000 257.000
54.29000 304.000
54.50000 292.000
54.71000 294.000
54.92000 262.000
55.13000 260.000
55.34000 260.000
55.55000 240.000
55.76000 269.000
55.97000 248.000
56.18000 269.000
56.39000 258.000
56.60000 246.000
56.81000 269.000
57.02000 273.000
57.23000 284.000
57.44000 281.000
57.65000 270.000
57.86000 287.000
58.07000 257.000
58.28000 281.000
58.49000 292.000
58.70000 250.000
58.91000 244.000
59.12000 270.000
59.33000 263.000
59.54000 225.000
59.75000 252.000
59.96000 267.000
60.17000 266.000
60.38000 244.000
60.59000 254.000
60.80000 223.000
61.01000 247.000
61.22000 226.000
61.43000 243.000
61.64000 232.000
61.85000 203.000
61.98500 216.000

File: HSC196_NM_range_8.xy
2.00000 2.000
2.21000 4.000
2.42000 5.000
2.63000 4.000
2.84000 131.000
3.05000 274.000
3.26000 276.000
3.47000 303.000
3.68000 312.000
3.89000 308.000
4.10000 327.000
4.31000 323.000
4.52000 358.000
4.73000 350.000
4.94000 400.000
5.15000 412.000
5.36000 376.000
5.57000 414.000
5.78000 419.000
5.99000 396.000
6.20000 409.000
6.41000 425.000
6.62000 462.000
6.83000 454.000
7.04000 474.000
7.25000 451.000
7.46000 514.000
7.67000 585.000
7.88000 1184.000
8.09000 737.000
8.30000 586.000
8.51000 555.000
8.72000 512.000
8.93000 547.000
9.14000 533.000
9.35000 529.000
9.56000 543.000
9.77000 591.000
9.98000 834.000
10.19000 775.000
10.40000 598.000
10.61000 518.000
10.82000 502.000
11.03000 535.000
11.24000 528.000
11.45000 511.000
11.66000 527.000
11.87000 488.000
12.08000 508.000
12.29000 506.000
12.50000 521.000
12.71000 487.000
12.92000 512.000
13.13000 473.000
13.34000 484.000
13.55000 508.000
13.76000 518.000
13.97000 499.000
14.18000 484.000
14.39000 485.000
14.60000 491.000
14.81000 512.000
15.02000 571.000
15.23000 570.000
15.44000 497.000
15.65000 501.000
15.86000 472.000
16.07000 505.000
16.28000 481.000
16.49000 456.000
16.70000 491.000
16.91000 512.000
17.12000 494.000
17.33000 493.000
17.54000 477.000
17.75000 504.000
17.96000 485.000
18.17000 531.000
18.38000 553.000
18.59000 652.000
18.80000 601.000
19.01000 556.000
19.22000 514.000
19.43000 510.000
19.64000 489.000
19.85000 514.000
20.06000 529.000
20.27000 514.000
20.48000 565.000
20.69000 541.000
20.90000 546.000
21.11000 595.000
21.32000 575.000
21.53000 594.000
21.74000 610.000
21.95000 686.000
22.16000 698.000
22.37000 687.000
22.58000 675.000
22.79000 778.000
23.00000 882.000
23.21000 731.000
23.42000 683.000
23.63000 679.000
23.84000 659.000
24.05000 716.000
24.26000 649.000
24.47000 765.000
24.68000 793.000
24.89000 777.000
25.10000 797.000
25.31000 846.000
25.52000 833.000
25.73000 910.000
25.94000 820.000
26.15000 845.000
26.36000 863.000
26.57000 864.000
26.78000 882.000
26.99000 959.000
27.20000 1016.000
27.41000 1297.000
27.62000 2602.000
27.83000 3367.000
28.04000 2485.000
28.25000 1739.000
28.46000 1304.000
28.67000 1053.000
28.88000 943.000
29.09000 974.000
29.30000 793.000
29.51000 793.000
29.72000 801.000
29.93000 787.000
30.14000 755.000
30.35000 806.000
30.56000 806.000
30.77000 733.000
30.98000 660.000
31.19000 642.000
31.40000 636.000
31.61000 663.000
31.82000 669.000
32.03000 619.000
32.24000 701.000
32.45000 723.000
32.66000 539.000
32.87000 534.000
33.08000 513.000
33.29000 470.000
33.50000 467.000
33.71000 441.000
33.92000 445.000
34.13000 476.000
34.34000 459.000
34.55000 454.000
34.76000 460.000
34.97000 463.000
35.18000 503.000
35.39000 742.000
35.60000 675.000
35.81000 513.000
36.02000 488.000
36.23000 559.000
36.44000 575.000
36.65000 512.000
36.86000 444.000
37.07000 502.000
37.28000 506.000
37.49000 511.000
37.70000 514.000
37.91000 485.000
38.12000 442.000
38.33000 464.000
38.54000 476.000
38.75000 476.000
38.96000 463.000
39.17000 416.000
39.38000 367.000
39.59000 407.000
39.80000 442.000
40.01000 420.000
40.22000 426.000
40.43000 433.000
40.64000 416.000
40.85000 399.000
41.06000 379.000
41.27000 384.000
41.48000 376.000
41.69000 389.000
41.90000 343.000
42.11000 344.000
42.32000 360.000
42.53000 365.000
42.74000 377.000
42.95000 393.000
43.16000 557.000
43.37000 563.000
43.58000 434.000
43.79000 392.000
44.00000 392.000
44.21000 433.000
44.42000 453.000
44.63000 423.000
44.84000 403.000
45.05000 420.000
45.26000 407.000
45.47000 369.000
45.68000 407.000
45.89000 416.000
46.10000 405.000
46.31000 404.000
46.52000 395.000
46.73000 379.000
46.94000 336.000
47.15000 330.000
47.36000 319.000
47.57000 287.000
47.78000 300.000
47.99000 317.000
48.20000 270.000
48.41000 285.000
48.62000 284.000
48.83000 271.000
49.04000 277.000
49.25000 296.000
49.46000 259.000
49.67000 271.000
49.88000 268.000
50.09000 340.000
50.30000 276.000
50.51000 286.000
50.72000 299.000
50.93000 315.000
51.14000 292.000
51.35000 303.000
51.56000 310.000
51.77000 296.000
51.98000 249.000
52.19000 279.000
52.40000 282.000
52.61000 274.000
52.82000 302.000
53.03000 296.000
53.24000 294.000
53.45000 275.000
53.66000 267.000
53.87000 259.000
54.08000 263.000
54.29000 286.000
54.50000 254.000
54.71000 245.000
54.92000 221.000
55.13000 254.000
55.34000 238.000
55.55000 258.000
55.76000 214.000
55.97000 261.000
56.18000 248.000
56.39000 263.000
56.60000 269.000
56.81000 257.000
57.02000 282.000
57.23000 311.000
57.44000 320.000
57.65000 272.000
57.86000 270.000
58.07000 272.000
58.28000 270.000
58.49000 269.000
58.70000 268.000
58.91000 239.000
59.12000 286.000
59.33000 250.000
59.54000 273.000
59.75000 224.000
59.96000 223.000
60.17000 235.000
60.38000 243.000
60.59000 235.000
60.80000 258.000
61.01000 218.000
61.22000 227.000
61.43000 222.000
61.64000 206.000
61.85000 221.000
61.98500 209.000

File: HSC196_NM_ranges_combined.xy
2.0 35.0
2.21 39.0
2.42 24.0
2.63 24.0
2.84 970.0
3.05 2117.0
3.26 2203.0
3.47 2344.0
3.68 2446.0
3.89 2433.0
4.1 2614.0
4.31 2722.0
4.52 2811.0
4.73 2736.0
4.94 2922.0
5.15 3114.0
5.36 3151.0
5.57 3178.0
5.78 3356.0
5.99 3349.0
6.2 3264.0
6.41 3414.0
6.62 3444.0
6.83 3507.0
7.04 3583.0
7.25 3660.0
7.46 3859.0
7.67 4657.0
7.88 9487.0
8.09 6044.0
8.3 4590.0
8.51 4295.0
8.72 4208.0
8.93 4250.0
9.14 4169.0
9.35 4292.0
9.56 4409.0
9.77 4752.0
9.98 6656.0
10.19 6484.0
10.4 4564.0
10.61 4242.0
10.82 4105.0
11.03 4098.0
11.24 4025.0
11.45 4000.0
11.66 4071.0
11.87 3936.0
12.08 4102.0
12.29 3892.0
12.5 3883.0
12.71 3962.0
12.92 3837.0
13.13 3979.0
13.34 3949.0
13.55 3803.0
13.76 3874.0
13.97 3879.0
14.18 3825.0
14.39 3903.0
14.6 3886.0
14.81 3958.0
15.02 4350.0
15.23 4712.0
15.44 4073.0
15.65 3995.0
15.86 3874.0
16.07 3891.0
16.28 3793.0
16.49 3975.0
16.7 3824.0
16.91 3880.0
17.12 3907.0
17.33 3823.0
17.54 3948.0
17.75 3984.0
17.96 3896.0
18.17 4096.0
18.38 4408.0
18.59 5395.0
18.8 4740.0
19.01 4210.0
19.22 4083.0
19.43 4039.0
19.64 4071.0
19.85 4060.0
20.06 4103.0
20.27 4183.0
20.48 4356.0
20.69 4294.0
20.9 4375.0
21.11 4421.0
21.32 4578.0
21.53 4573.0
21.74 4873.0
21.95 5385.0
22.16 5520.0
22.37 5176.0
22.58 5330.0
22.79 6124.0
23.0 6939.0
23.21 5879.0
23.42 5413.0
23.63 5122.0
23.84 5289.0
24.05 5688.0
24.26 5399.0
24.47 6052.0
24.68 6227.0
24.89 6119.0
25.1 6095.0
25.31 6227.0
25.52 6806.0
25.73 7121.0
25.94 6672.0
26.15 6644.0
26.36 6697.0
26.57 6934.0
26.78 7066.0
26.99 7832.0
27.2 8361.0
27.41 10319.0
27.62 20339.0
27.83 26022.0
28.04 19817.0
28.25 13761.0
28.46 10319.0
28.67 8439.0
28.88 7393.0
29.09 7673.0
29.3 6569.0
29.51 6160.0
29.72 6206.0
29.93 5975.0
30.14 5970.0
30.35 6460.0
30.56 6368.0
30.77 5912.0
30.98 5326.0
31.19 5037.0
31.4 5243.0
31.61 5142.0
31.82 5260.0
32.03 5050.0
32.24 5680.0
32.45 5813.0
32.66 4344.0
32.87 3984.0
33.08 3903.0
33.29 3713.0
33.5 3562.0
33.71 3655.0
33.92 3553.0
34.13 3592.0
34.34 3552.0
34.55 3511.0
34.76 3563.0
34.97 3624.0
35.18 4070.0
35.39 5705.0
35.6 5070.0
35.81 3956.0
36.02 3831.0
36.23 4230.0
36.44 4544.0
36.65 4333.0
36.86 3678.0
37.07 3751.0
37.28 4102.0
37.49 4209.0
37.7 3976.0
37.91 3765.0
38.12 3644.0
38.33 3542.0
38.54 3853.0
38.75 3842.0
38.96 3575.0
39.17 3194.0
39.38 3058.0
39.59 3165.0
39.8 3261.0
40.01 3517.0
40.22 3458.0
40.43 3552.0
40.64 3342.0
40.85 3198.0
41.06 3021.0
41.27 2941.0
41.48 2887.0
41.69 2871.0
41.9 2866.0
42.11 2827.0
42.32 2844.0
42.53 2893.0
42.74 2910.0
42.95 3209.0
43.16 4282.0
43.37 4498.0
43.58 3593.0
43.79 3185.0
44.0 3040.0
44.21 3240.0
44.42 3671.0
44.63 3293.0
44.84 3301.0
45.05 3240.0
45.26 3263.0
45.47 3006.0
45.68 3078.0
45.89 3090.0
46.1 3083.0
46.31 3014.0
46.52 2874.0
46.73 2817.0
46.94 2742.0
47.15 2643.0
47.36 2529.0
47.57 2318.0
47.78 2365.0
47.99 2476.0
48.2 2289.0
48.41 2243.0
48.62 2230.0
48.83 2200.0
49.04 2192.0
49.25 2196.0
49.46 2211.0
49.67 2197.0
49.88 2192.0
50.09 2594.0
50.3 2254.0
50.51 2299.0
50.72 2299.0
50.93 2386.0
51.14 2323.0
51.35 2310.0
51.56 2398.0
51.77 2238.0
51.98 2100.0
52.19 2140.0
52.4 2173.0
52.61 2219.0
52.82 2385.0
53.03 2350.0
53.24 2296.0
53.45 2119.0
53.66 2116.0
53.87 2166.0
54.08 2165.0
54.29 2227.0
54.5 2150.0
54.71 2074.0
54.92 1941.0
55.13 2039.0
55.34 1995.0
55.55 1950.0
55.76 1962.0
55.97 1927.0
56.18 2066.0
56.39 2040.0
56.6 2046.0
56.81 2103.0
57.02 2212.0
57.23 2297.0
57.44 2372.0
57.65 2237.0
57.86 2198.0
58.07 2183.0
58.28 2243.0
58.49 2159.0
58.7 2091.0
58.91 1988.0
59.12 2064.0
59.33 1984.0
59.54 1964.0
59.75 1935.0
59.96 1927.0
60.17 1900.0
60.38 1908.0
60.59 2037.0
60.8 1955.0
61.01 1916.0
61.22 1905.0
61.43 1849.0
61.64 1748.0
61.85 1770.0
61.985 1707.0

File: HSC206.xy
2.00000 2.000
2.21000 3.000
2.42000 4.000
2.63000 2.000
2.84000 0.000
3.05000 157.000
3.26000 336.000
3.47000 300.000
3.68000 303.000
3.89000 261.000
4.10000 263.000
4.31000 262.000
4.52000 232.000
4.73000 265.000
4.94000 251.000
5.15000 241.000
5.36000 229.000
5.57000 236.000
5.78000 278.000
5.99000 243.000
6.20000 236.000
6.41000 249.000
6.62000 269.000
6.83000 247.000
7.04000 247.000
7.25000 264.000
7.46000 263.000
7.67000 259.000
7.88000 248.000
8.09000 251.000
8.30000 266.000
8.51000 282.000
8.72000 271.000
8.93000 285.000
9.14000 245.000
9.35000 263.000
9.56000 287.000
9.77000 282.000
9.98000 320.000
10.19000 296.000
10.40000 313.000
10.61000 319.000
10.82000 322.000
11.03000 316.000
11.24000 315.000
11.45000 315.000
11.66000 326.000
11.87000 362.000
12.08000 401.000
12.29000 404.000
12.50000 461.000
12.71000 505.000
12.92000 562.000
13.13000 555.000
13.34000 541.000
13.55000 478.000
13.76000 466.000
13.97000 473.000
14.18000 441.000
14.39000 436.000
14.60000 425.000
14.81000 423.000
15.02000 408.000
15.23000 437.000
15.44000 419.000
15.65000 412.000
15.86000 387.000
16.07000 396.000
16.28000 391.000
16.49000 401.000
16.70000 386.000
16.91000 397.000
17.12000 386.000
17.33000 390.000
17.54000 421.000
17.75000 416.000
17.96000 436.000
18.17000 441.000
18.38000 437.000
18.59000 433.000
18.80000 399.000
19.01000 428.000
19.22000 399.000
19.43000 440.000
19.64000 392.000
19.85000 412.000
20.06000 405.000
20.27000 415.000
20.48000 420.000
20.69000 428.000
20.90000 386.000
21.11000 419.000
21.32000 407.000
21.53000 437.000
21.74000 403.000
21.95000 422.000
22.16000 434.000
22.37000 408.000
22.58000 445.000
22.79000 415.000
23.00000 409.000
23.21000 421.000
23.42000 402.000
23.63000 451.000
23.84000 421.000
24.05000 430.000
24.26000 438.000
24.47000 418.000
24.68000 486.000
24.89000 496.000
25.10000 505.000
25.31000 542.000
25.52000 548.000
25.73000 579.000
25.94000 675.000
26.15000 761.000
26.36000 859.000
26.57000 1023.000
26.78000 1130.000
26.99000 1340.000
27.20000 1452.000
27.41000 1588.000
27.62000 1477.000
27.83000 1262.000
28.04000 1056.000
28.25000 900.000
28.46000 702.000
28.67000 624.000
28.88000 552.000
29.09000 523.000
29.30000 493.000
29.51000 466.000
29.72000 390.000
29.93000 387.000
30.14000 340.000
30.35000 386.000
30.56000 346.000
30.77000 339.000
30.98000 354.000
31.19000 317.000
31.40000 294.000
31.61000 292.000
31.82000 285.000
32.03000 292.000
32.24000 298.000
32.45000 281.000
32.66000 260.000
32.87000 240.000
33.08000 244.000
33.29000 239.000
33.50000 261.000
33.71000 262.000
33.92000 225.000
34.13000 244.000
34.34000 222.000
34.55000 214.000
34.76000 215.000
34.97000 219.000
35.18000 220.000
35.39000 232.000
35.60000 218.000
35.81000 205.000
36.02000 219.000
36.23000 212.000
36.44000 206.000
36.65000 203.000
36.86000 195.000
37.07000 185.000
37.28000 200.000
37.49000 213.000
37.70000 189.000
37.91000 185.000
38.12000 183.000
38.33000 194.000
38.54000 168.000
38.75000 192.000
38.96000 212.000
39.17000 200.000
39.38000 182.000
39.59000 199.000
39.80000 185.000
40.01000 195.000
40.22000 178.000
40.43000 181.000
40.64000 162.000
40.85000 177.000
41.06000 191.000
41.27000 192.000
41.48000 199.000
41.69000 174.000
41.90000 197.000
42.11000 191.000
42.32000 185.000
42.53000 192.000
42.74000 186.000
42.95000 211.000
43.16000 219.000
43.37000 214.000
43.58000 197.000
43.79000 195.000
44.00000 218.000
44.21000 188.000
44.42000 189.000
44.63000 208.000
44.84000 208.000
45.05000 208.000
45.26000 210.000
45.47000 176.000
45.68000 217.000
45.89000 222.000
46.10000 201.000
46.31000 195.000
46.52000 187.000
46.73000 192.000
46.94000 168.000
47.15000 162.000
47.36000 180.000
47.57000 185.000
47.78000 181.000
47.99000 171.000
48.20000 172.000
48.41000 163.000
48.62000 181.000
48.83000 175.000
49.04000 162.000
49.25000 169.000
49.46000 158.000
49.67000 180.000
49.88000 177.000
50.09000 160.000
50.30000 168.000
50.51000 154.000
50.72000 162.000
50.93000 159.000
51.14000 150.000
51.35000 149.000
51.56000 167.000
51.77000 148.000
51.98000 139.000
52.19000 140.000
52.40000 175.000
52.61000 172.000
52.82000 169.000
53.03000 160.000
53.24000 161.000
53.45000 172.000
53.66000 165.000
53.87000 161.000
54.08000 167.000
54.29000 140.000
54.50000 153.000
54.71000 161.000
54.92000 169.000
55.13000 160.000
55.34000 161.000
55.55000 169.000
55.76000 167.000
55.97000 171.000
56.18000 167.000
56.39000 149.000
56.60000 164.000
56.81000 164.000
57.02000 157.000
57.23000 140.000
57.44000 137.000
57.65000 142.000
57.86000 148.000
58.07000 134.000
58.28000 146.000
58.49000 126.000
58.70000 129.000
58.91000 139.000
59.12000 119.000
59.33000 129.000
59.54000 127.000
59.75000 121.000
59.96000 126.000
60.17000 120.000
60.38000 121.000
60.59000 128.000
60.80000 102.000
61.01000 113.000
61.22000 113.000
61.43000 122.000
61.64000 113.000
61.85000 110.000
61.98500 99.000