Folder: phd-thesis/ISoD/xrd_data (part 7)

File: HSC026_Soxhlet.xy
2.00000 2.000
2.21000 3.000
2.42000 2.000
2.63000 2.000
2.84000 2.000
3.05000 1.000
3.26000 55.000
3.47000 197.000
3.68000 199.000
3.89000 167.000
4.10000 175.000
4.31000 168.000
4.52000 179.000
4.73000 167.000
4.94000 157.000
5.15000 153.000
5.36000 170.000
5.57000 162.000
5.78000 166.000
5.99000 167.000
6.20000 183.000
6.41000 157.000
6.62000 151.000
6.83000 198.000
7.04000 182.000
7.25000 200.000
7.46000 166.000
7.67000 208.000
7.88000 186.000
8.09000 202.000
8.30000 226.000
8.51000 300.000
8.72000 279.000
8.93000 225.000
9.14000 205.000
9.35000 207.000
9.56000 200.000
9.77000 205.000
9.98000 211.000
10.19000 227.000
10.40000 233.000
10.61000 228.000
10.82000 241.000
11.03000 253.000
11.24000 348.000
11.45000 710.000
11.66000 736.000
11.87000 470.000
12.08000 269.000
12.29000 235.000
12.50000 215.000
12.71000 256.000
12.92000 300.000
13.13000 255.000
13.34000 239.000
13.55000 187.000
13.76000 207.000
13.97000 204.000
14.18000 209.000
14.39000 196.000
14.60000 183.000
14.81000 191.000
15.02000 185.000
15.23000 190.000
15.44000 199.000
15.65000 177.000
15.86000 198.000
16.07000 179.000
16.28000 203.000
16.49000 178.000
16.70000 190.000
16.91000 176.000
17.12000 184.000
17.33000 203.000
17.54000 203.000
17.75000 188.000
17.96000 196.000
18.17000 216.000
18.38000 226.000
18.59000 217.000
18.80000 213.000
19.01000 193.000
19.22000 193.000
19.43000 231.000
19.64000 208.000
19.85000 220.000
20.06000 227.000
20.27000 209.000
20.48000 198.000
20.69000 200.000
20.90000 200.000
21.11000 181.000
21.32000 210.000
21.53000 198.000
21.74000 177.000
21.95000 192.000
22.16000 234.000
22.37000 202.000
22.58000 218.000
22.79000 230.000
23.00000 231.000
23.21000 235.000
23.42000 234.000
23.63000 233.000
23.84000 232.000
24.05000 259.000
24.26000 276.000
24.47000 270.000
24.68000 262.000
24.89000 308.000
25.10000 417.000
25.31000 484.000
25.52000 725.000
25.73000 583.000
25.94000 443.000
26.15000 369.000
26.36000 391.000
26.57000 378.000
26.78000 387.000
26.99000 486.000
27.20000 630.000
27.41000 785.000
27.62000 618.000
27.83000 335.000
28.04000 258.000
28.25000 232.000
28.46000 227.000
28.67000 221.000
28.88000 205.000
29.09000 198.000
29.30000 204.000
29.51000 196.000
29.72000 182.000
29.93000 200.000
30.14000 234.000
30.35000 260.000
30.56000 237.000
30.77000 218.000
30.98000 195.000
31.19000 184.000
31.40000 177.000
31.61000 162.000
31.82000 154.000
32.03000 136.000
32.24000 171.000
32.45000 165.000
32.66000 136.000
32.87000 154.000
33.08000 149.000
33.29000 141.000
33.50000 148.000
33.71000 143.000
33.92000 160.000
34.13000 132.000
34.34000 142.000
34.55000 150.000
34.76000 148.000
34.97000 134.000
35.18000 143.000
35.39000 118.000
35.60000 120.000
35.81000 118.000
36.02000 122.000
36.23000 109.000
36.44000 117.000
36.65000 99.000
36.86000 105.000
37.07000 106.000
37.28000 112.000
37.49000 117.000
37.70000 103.000
37.91000 108.000
38.12000 116.000
38.33000 106.000
38.54000 96.000
38.75000 114.000
38.96000 113.000
39.17000 100.000
39.38000 94.000
39.59000 101.000
39.80000 106.000
40.01000 125.000
40.22000 135.000
40.43000 123.000
40.64000 123.000
40.85000 129.000
41.06000 113.000
41.27000 125.000
41.48000 114.000
41.69000 93.000
41.90000 96.000
42.11000 103.000
42.32000 109.000
42.53000 90.000
42.74000 112.000
42.95000 92.000
43.16000 100.000
43.37000 101.000
43.58000 105.000
43.79000 97.000
44.00000 89.000
44.21000 104.000
44.42000 101.000
44.63000 105.000
44.84000 83.000
45.05000 88.000
45.26000 117.000
45.47000 100.000
45.68000 98.000
45.89000 104.000
46.10000 100.000
46.31000 119.000
46.52000 94.000
46.73000 84.000
46.94000 110.000
47.15000 99.000
47.36000 85.000
47.57000 79.000
47.78000 104.000
47.99000 86.000
48.20000 85.000
48.41000 92.000
48.62000 89.000
48.83000 94.000
49.04000 82.000
49.25000 82.000
49.46000 82.000
49.67000 95.000
49.88000 65.000
50.09000 82.000
50.30000 86.000
50.51000 93.000
50.72000 84.000
50.93000 81.000
51.14000 83.000
51.35000 91.000
51.56000 80.000
51.77000 83.000
51.98000 72.000
52.19000 87.000
52.40000 83.000
52.61000 84.000
52.82000 95.000
53.03000 97.000
53.24000 93.000
53.45000 78.000
53.66000 96.000
53.87000 75.000
54.08000 92.000
54.29000 81.000
54.50000 87.000
54.71000 92.000
54.92000 82.000
55.13000 91.000
55.34000 84.000
55.55000 77.000
55.76000 71.000
55.97000 79.000
56.18000 90.000
56.39000 82.000
56.60000 82.000
56.81000 86.000
57.02000 74.000
57.23000 67.000
57.44000 81.000
57.65000 83.000
57.86000 77.000
58.07000 68.000
58.28000 81.000
58.49000 81.000
58.70000 73.000
58.91000 68.000
59.12000 85.000
59.33000 71.000
59.54000 77.000
59.75000 60.000
59.96000 87.000
60.17000 72.000
60.38000 61.000
60.59000 70.000
60.80000 65.000
61.01000 71.000
61.22000 72.000
61.43000 72.000
61.64000 50.000
61.85000 77.000
61.98500 76.000

File: HSC031.xy
2.00000    1115.000
2.21000    776.000
2.42000    627.000
2.63000    499.000
2.84000    427.000
3.05000    359.000
3.26000    343.000
3.47000    325.000
3.68000    303.000
3.89000    278.000
4.10000    243.000
4.31000    242.000
4.52000    213.000
4.73000    246.000
4.94000    222.000
5.15000    198.000
5.36000    207.000
5.57000    222.000
5.78000    198.000
5.99000    195.000
6.20000    208.000
6.41000    193.000
6.62000    196.000
6.83000    207.000
7.04000    217.000
7.25000    208.000
7.46000    214.000
7.67000    232.000
7.88000    309.000
8.09000    312.000
8.30000    310.000
8.51000    291.000
8.72000    246.000
8.93000    213.000
9.14000    210.000
9.35000    207.000
9.56000    190.000
9.77000    195.000
9.98000    178.000
10.19000    207.000
10.40000    216.000
10.61000    186.000
10.82000    205.000
11.03000    182.000
11.24000    193.000
11.45000    204.000
11.66000    218.000
11.87000    208.000
12.08000    222.000
12.29000    201.000
12.50000    218.000
12.71000    195.000
12.92000    210.000
13.13000    183.000
13.34000    192.000
13.55000    188.000
13.76000    194.000
13.97000    206.000
14.18000    201.000
14.39000    200.000
14.60000    195.000
14.81000    209.000
15.02000    207.000
15.23000    198.000
15.44000    185.000
15.65000    188.000
15.86000    186.000
16.07000    197.000
16.28000    187.000
16.49000    214.000
16.70000    203.000
16.91000    188.000
17.12000    217.000
17.33000    216.000
17.54000    198.000
17.75000    192.000
17.96000    212.000
18.17000    213.000
18.38000    206.000
18.59000    225.000
18.80000    225.000
19.01000    239.000
19.22000    213.000
19.43000    220.000
19.64000    225.000
19.85000    238.000
20.06000    236.000
20.27000    262.000
20.48000    246.000
20.69000    244.000
20.90000    289.000
21.11000    302.000
21.32000    267.000
21.53000    262.000
21.74000    281.000
21.95000    284.000
22.16000    273.000
22.37000    262.000
22.58000    278.000
22.79000    285.000
23.00000    283.000
23.21000    267.000
23.42000    305.000
23.63000    289.000
23.84000    286.000
24.05000    306.000
24.26000    279.000
24.47000    312.000
24.68000    267.000
24.89000    313.000
25.10000    337.000
25.31000    313.000
25.52000    338.000
25.73000    304.000
25.94000    348.000
26.15000    336.000
26.36000    388.000
26.57000    483.000
26.78000    523.000
26.99000    544.000
27.20000    506.000
27.41000    490.000
27.62000    477.000
27.83000    485.000
28.04000    492.000
28.25000    420.000
28.46000    422.000
28.67000    405.000
28.88000    347.000
29.09000    381.000
29.30000    354.000
29.51000    351.000
29.72000    304.000
29.93000    323.000
30.14000    294.000
30.35000    285.000
30.56000    266.000
30.77000    249.000
30.98000    237.000
31.19000    239.000
31.40000    232.000
31.61000    243.000
31.82000    231.000
32.03000    254.000
32.24000    238.000
32.45000    239.000
32.66000    229.000
32.87000    225.000
33.08000    222.000
33.29000    209.000
33.50000    207.000
33.71000    193.000
33.92000    194.000
34.13000    200.000
34.34000    191.000
34.55000    202.000
34.76000    198.000
34.97000    189.000
35.18000    186.000
35.39000    199.000
35.60000    174.000
35.81000    175.000
36.02000    177.000
36.23000    187.000
36.44000    194.000
36.65000    163.000
36.86000    156.000
37.07000    155.000
37.28000    178.000
37.49000    167.000
37.70000    150.000
37.91000    158.000
38.12000    153.000
38.33000    138.000
38.54000    139.000
38.75000    153.000
38.96000    138.000
39.17000    154.000
39.38000    138.000
39.59000    141.000
39.80000    148.000
40.01000    147.000
40.22000    137.000
40.43000    151.000
40.64000    128.000
40.85000    146.000
41.06000    153.000
41.27000    150.000
41.48000    144.000
41.69000    123.000
41.90000    156.000
42.11000    115.000
42.32000    137.000
42.53000    149.000
42.74000    152.000
42.95000    138.000
43.16000    127.000
43.37000    153.000
43.58000    144.000
43.79000    127.000
44.00000    151.000
44.21000    144.000
44.42000    144.000
44.63000    163.000
44.84000    130.000
45.05000    135.000
45.26000    127.000
45.47000    132.000
45.68000    139.000
45.89000    116.000
46.10000    136.000
46.31000    149.000
46.52000    113.000
46.73000    122.000
46.94000    114.000
47.15000    114.000
47.36000    103.000
47.57000    118.000
47.78000    118.000
47.99000    108.000
48.20000    106.000
48.41000    113.000
48.62000    97.000
48.83000    104.000
49.04000    104.000
49.25000    116.000
49.46000    109.000
49.67000    117.000
49.88000    100.000
50.09000    128.000
50.30000    101.000
50.51000    113.000
50.72000    98.000
50.93000    119.000
51.14000    106.000
51.35000    116.000
51.56000    106.000
51.77000    109.000
51.98000    110.000
52.19000    106.000
52.40000    109.000
52.61000    108.000
52.82000    107.000
53.03000    108.000
53.24000    89.000
53.45000    94.000
53.66000    94.000
53.87000    95.000
54.08000    101.000
54.29000    90.000
54.50000    126.000
54.71000    112.000
54.92000    98.000
55.13000    102.000
55.34000    105.000
55.55000    94.000
55.76000    95.000
55.97000    101.000
56.18000    102.000
56.39000    98.000
56.60000    101.000
56.81000    92.000
57.02000    105.000
57.23000    126.000
57.44000    95.000
57.65000    94.000
57.86000    94.000
58.07000    99.000
58.28000    106.000
58.49000    88.000
58.70000    103.000
58.91000    92.000
59.12000    82.000
59.33000    82.000
59.54000    91.000
59.75000    102.000
59.96000    91.000
60.17000    92.000
60.38000    80.000
60.59000    90.000
60.80000    90.000
61.01000    107.000
61.22000    89.000
61.43000    94.000
61.64000    97.000
61.85000    89.000
61.98500    94.000

File: HSC032.xy
2.00000 1.000
2.21000 3.000
2.42000 3.000
2.63000 3.000
2.84000 9.000
3.05000 1128.000
3.26000 1514.000
3.47000 1255.000
3.68000 1187.000
3.89000 1109.000
4.10000 991.000
4.31000 879.000
4.52000 829.000
4.73000 802.000
4.94000 760.000
5.15000 712.000
5.36000 619.000
5.57000 659.000
5.78000 598.000
5.99000 585.000
6.20000 550.000
6.41000 553.000
6.62000 501.000
6.83000 480.000
7.04000 446.000
7.25000 479.000
7.46000 467.000
7.67000 457.000
7.88000 464.000
8.09000 443.000
8.30000 430.000
8.51000 431.000
8.72000 452.000
8.93000 413.000
9.14000 406.000
9.35000 422.000
9.56000 413.000
9.77000 444.000
9.98000 410.000
10.19000 420.000
10.40000 384.000
10.61000 401.000
10.82000 399.000
11.03000 404.000
11.24000 389.000
11.45000 415.000
11.66000 398.000
11.87000 389.000
12.08000 418.000
12.29000 363.000
12.50000 360.000
12.71000 396.000
12.92000 397.000
13.13000 393.000
13.34000 393.000
13.55000 377.000
13.76000 381.000
13.97000 397.000
14.18000 407.000
14.39000 350.000
14.60000 372.000
14.81000 376.000
15.02000 361.000
15.23000 373.000
15.44000 361.000
15.65000 404.000
15.86000 349.000
16.07000 384.000
16.28000 374.000
16.49000 370.000
16.70000 368.000
16.91000 377.000
17.12000 398.000
17.33000 387.000
17.54000 374.000
17.75000 375.000
17.96000 396.000
18.17000 369.000
18.38000 380.000
18.59000 386.000
18.80000 406.000
19.01000 402.000
19.22000 393.000
19.43000 409.000
19.64000 403.000
19.85000 390.000
20.06000 396.000
20.27000 401.000
20.48000 452.000
20.69000 440.000
20.90000 433.000
21.11000 416.000
21.32000 400.000
21.53000 440.000
21.74000 426.000
21.95000 454.000
22.16000 446.000
22.37000 439.000
22.58000 441.000
22.79000 446.000
23.00000 455.000
23.21000 447.000
23.42000 446.000
23.63000 436.000
23.84000 446.000
24.05000 460.000
24.26000 447.000
24.47000 441.000
24.68000 429.000
24.89000 449.000
25.10000 443.000
25.31000 472.000
25.52000 468.000
25.73000 419.000
25.94000 444.000
26.15000 467.000
26.36000 442.000
26.57000 439.000
26.78000 431.000
26.99000 419.000
27.20000 416.000
27.41000 410.000
27.62000 389.000
27.83000 383.000
28.04000 393.000
28.25000 358.000
28.46000 391.000
28.67000 381.000
28.88000 359.000
29.09000 371.000
29.30000 350.000
29.51000 353.000
29.72000 338.000
29.93000 336.000
30.14000 324.000
30.35000 343.000
30.56000 333.000
30.77000 331.000
30.98000 318.000
31.19000 306.000
31.40000 334.000
31.61000 309.000
31.82000 283.000
32.03000 274.000
32.24000 272.000
32.45000 272.000
32.66000 280.000
32.87000 265.000
33.08000 276.000
33.29000 276.000
33.50000 281.000
33.71000 256.000
33.92000 235.000
34.13000 235.000
34.34000 235.000
34.55000 256.000
34.76000 239.000
34.97000 239.000
35.18000 246.000
35.39000 233.000
35.60000 221.000
35.81000 214.000
36.02000 231.000
36.23000 202.000
36.44000 200.000
36.65000 204.000
36.86000 213.000
37.07000 210.000
37.28000 209.000
37.49000 192.000
37.70000 203.000
37.91000 212.000
38.12000 207.000
38.33000 190.000
38.54000 204.000
38.75000 207.000
38.96000 189.000
39.17000 220.000
39.38000 197.000
39.59000 200.000
39.80000 193.000
40.01000 209.000
40.22000 209.000
40.43000 195.000
40.64000 206.000
40.85000 199.000
41.06000 186.000
41.27000 188.000
41.48000 191.000
41.69000 193.000
41.90000 192.000
42.11000 206.000
42.32000 185.000
42.53000 213.000
42.74000 188.000
42.95000 192.000
43.16000 191.000
43.37000 190.000
43.58000 165.000
43.79000 203.000
44.00000 181.000
44.21000 190.000
44.42000 199.000
44.63000 185.000
44.84000 177.000
45.05000 172.000
45.26000 181.000
45.47000 159.000
45.68000 166.000
45.89000 178.000
46.10000 180.000
46.31000 158.000
46.52000 171.000
46.73000 176.000
46.94000 164.000
47.15000 155.000
47.36000 180.000
47.57000 140.000
47.78000 166.000
47.99000 165.000
48.20000 160.000
48.41000 152.000
48.62000 142.000
48.83000 174.000
49.04000 138.000
49.25000 152.000
49.46000 153.000
49.67000 127.000
49.88000 156.000
50.09000 151.000
50.30000 150.000
50.51000 135.000
50.72000 157.000
50.93000 146.000
51.14000 133.000
51.35000 140.000
51.56000 145.000
51.77000 147.000
51.98000 141.000
52.19000 121.000
52.40000 130.000
52.61000 136.000
52.82000 153.000
53.03000 124.000
53.24000 130.000
53.45000 120.000
53.66000 148.000
53.87000 146.000
54.08000 141.000
54.29000 134.000
54.50000 134.000
54.71000 119.000
54.92000 117.000
55.13000 133.000
55.34000 114.000
55.55000 123.000
55.76000 121.000
55.97000 113.000
56.18000 130.000
56.39000 119.000
56.60000 118.000
56.81000 116.000
57.02000 119.000
57.23000 134.000
57.44000 114.000
57.65000 131.000
57.86000 112.000
58.07000 130.000
58.28000 122.000
58.49000 103.000
58.70000 103.000
58.91000 118.000
59.12000 117.000
59.33000 106.000
59.54000 128.000
59.75000 110.000
59.96000 126.000
60.17000 119.000
60.38000 109.000
60.59000 105.000
60.80000 107.000
61.01000 110.000
61.22000 99.000
61.43000 128.000
61.64000 118.000
61.85000 99.000
61.98500 117.000

File: HSC033.xy
2.00000 4.000
2.21000 1.000
2.42000 2.000
2.63000 2.000
2.84000 4.000
3.05000 182.000
3.26000 385.000
3.47000 360.000
3.68000 330.000
3.89000 316.000
4.10000 291.000
4.31000 310.000
4.52000 300.000
4.73000 287.000
4.94000 321.000
5.15000 289.000
5.36000 303.000
5.57000 301.000
5.78000 304.000
5.99000 287.000
6.20000 300.000
6.41000 303.000
6.62000 296.000
6.83000 306.000
7.04000 284.000
7.25000 327.000
7.46000 301.000
7.67000 331.000
7.88000 331.000
8.09000 289.000
8.30000 358.000
8.51000 386.000
8.72000 363.000
8.93000 307.000
9.14000 294.000
9.35000 319.000
9.56000 313.000
9.77000 311.000
9.98000 360.000
10.19000 324.000
10.40000 323.000
10.61000 322.000
10.82000 347.000
11.03000 349.000
11.24000 414.000
11.45000 425.000
11.66000 497.000
11.87000 458.000
12.08000 315.000
12.29000 291.000
12.50000 289.000
12.71000 287.000
12.92000 289.000
13.13000 300.000
13.34000 274.000
13.55000 253.000
13.76000 245.000
13.97000 246.000
14.18000 248.000
14.39000 250.000
14.60000 234.000
14.81000 266.000
15.02000 232.000
15.23000 255.000
15.44000 245.000
15.65000 227.000
15.86000 238.000
16.07000 241.000
16.28000 265.000
16.49000 247.000
16.70000 275.000
16.91000 233.000
17.12000 232.000
17.33000 240.000
17.54000 232.000
17.75000 238.000
17.96000 236.000
18.17000 235.000
18.38000 256.000
18.59000 258.000
18.80000 239.000
19.01000 237.000
19.22000 308.000
19.43000 272.000
19.64000 261.000
19.85000 262.000
20.06000 250.000
20.27000 281.000
20.48000 273.000
20.69000 267.000
20.90000 268.000
21.11000 267.000
21.32000 256.000
21.53000 279.000
21.74000 300.000
21.95000 261.000
22.16000 265.000
22.37000 285.000
22.58000 289.000
22.79000 302.000
23.00000 291.000
23.21000 309.000
23.42000 326.000
23.63000 311.000
23.84000 304.000
24.05000 329.000
24.26000 348.000
24.47000 351.000
24.68000 396.000
24.89000 421.000
25.10000 478.000
25.31000 501.000
25.52000 577.000
25.73000 576.000
25.94000 575.000
26.15000 586.000
26.36000 566.000
26.57000 610.000
26.78000 565.000
26.99000 641.000
27.20000 650.000
27.41000 571.000
27.62000 455.000
27.83000 366.000
28.04000 340.000
28.25000 286.000
28.46000 272.000
28.67000 236.000
28.88000 243.000
29.09000 237.000
29.30000 256.000
29.51000 231.000
29.72000 229.000
29.93000 226.000
30.14000 267.000
30.35000 282.000
30.56000 238.000
30.77000 220.000
30.98000 202.000
31.19000 207.000
31.40000 206.000
31.61000 189.000
31.82000 198.000
32.03000 182.000
32.24000 193.000
32.45000 196.000
32.66000 194.000
32.87000 171.000
33.08000 154.000
33.29000 169.000
33.50000 153.000
33.71000 161.000
33.92000 159.000
34.13000 175.000
34.34000 180.000
34.55000 154.000
34.76000 163.000
34.97000 144.000
35.18000 129.000
35.39000 157.000
35.60000 139.000
35.81000 152.000
36.02000 125.000
36.23000 142.000
36.44000 131.000
36.65000 143.000
36.86000 153.000
37.07000 161.000
37.28000 133.000
37.49000 146.000
37.70000 138.000
37.91000 123.000
38.12000 131.000
38.33000 127.000
38.54000 140.000
38.75000 140.000
38.96000 130.000
39.17000 130.000
39.38000 132.000
39.59000 138.000
39.80000 119.000
40.01000 118.000
40.22000 136.000
40.43000 139.000
40.64000 136.000
40.85000 134.000
41.06000 127.000
41.27000 142.000
41.48000 134.000
41.69000 135.000
41.90000 129.000
42.11000 130.000
42.32000 134.000
42.53000 121.000
42.74000 123.000
42.95000 126.000
43.16000 127.000
43.37000 124.000
43.58000 131.000
43.79000 145.000
44.00000 118.000
44.21000 134.000
44.42000 121.000
44.63000 129.000
44.84000 132.000
45.05000 127.000
45.26000 116.000
45.47000 128.000
45.68000 132.000
45.89000 116.000
46.10000 113.000
46.31000 118.000
46.52000 129.000
46.73000 108.000
46.94000 123.000
47.15000 105.000
47.36000 110.000
47.57000 108.000
47.78000 111.000
47.99000 108.000
48.20000 119.000
48.41000 111.000
48.62000 99.000
48.83000 106.000
49.04000 101.000
49.25000 100.000
49.46000 104.000
49.67000 93.000
49.88000 97.000
50.09000 108.000
50.30000 119.000
50.51000 96.000
50.72000 104.000
50.93000 101.000
51.14000 110.000
51.35000 103.000
51.56000 94.000
51.77000 106.000
51.98000 98.000
52.19000 93.000
52.40000 88.000
52.61000 107.000
52.82000 95.000
53.03000 98.000
53.24000 109.000
53.45000 82.000
53.66000 108.000
53.87000 117.000
54.08000 97.000
54.29000 102.000
54.50000 83.000
54.71000 104.000
54.92000 87.000
55.13000 100.000
55.34000 89.000
55.55000 96.000
55.76000 93.000
55.97000 87.000
56.18000 90.000
56.39000 81.000
56.60000 93.000
56.81000 82.000
57.02000 95.000
57.23000 91.000
57.44000 90.000
57.65000 88.000
57.86000 81.000
58.07000 94.000
58.28000 82.000
58.49000 86.000
58.70000 87.000
58.91000 84.000
59.12000 83.000
59.33000 84.000
59.54000 95.000
59.75000 83.000
59.96000 79.000
60.17000 75.000
60.38000 86.000
60.59000 68.000
60.80000 83.000
61.01000 92.000
61.22000 88.000
61.43000 88.000
61.64000 80.000
61.85000 77.000
61.98500 85.000

File: HSC034.xy
2.00000 629.000
2.21000 512.000
2.42000 457.000
2.63000 403.000
2.84000 389.000
3.05000 360.000
3.26000 329.000
3.47000 319.000
3.68000 308.000
3.89000 312.000
4.10000 311.000
4.31000 299.000
4.52000 307.000
4.73000 292.000
4.94000 308.000
5.15000 287.000
5.36000 288.000
5.57000 326.000
5.78000 299.000
5.99000 291.000
6.20000 307.000
6.41000 324.000
6.62000 326.000
6.83000 287.000
7.04000 318.000
7.25000 315.000
7.46000 337.000
7.67000 332.000
7.88000 329.000
8.09000 322.000
8.30000 341.000
8.51000 357.000
8.72000 353.000
8.93000 337.000
9.14000 353.000
9.35000 354.000
9.56000 351.000
9.77000 347.000
9.98000 390.000
10.19000 427.000
10.40000 364.000
10.61000 540.000
10.82000 472.000
11.03000 439.000
11.24000 468.000
11.45000 477.000
11.66000 465.000
11.87000 465.000
12.08000 889.000
12.29000 360.000
12.50000 344.000
12.71000 488.000
12.92000 324.000
13.13000 306.000
13.34000 307.000
13.55000 309.000
13.76000 317.000
13.97000 304.000
14.18000 310.000
14.39000 277.000
14.60000 306.000
14.81000 275.000
15.02000 287.000
15.23000 303.000
15.44000 272.000
15.65000 275.000
15.86000 299.000
16.07000 310.000
16.28000 325.000
16.49000 317.000
16.70000 278.000
16.91000 298.000
17.12000 304.000
17.33000 357.000
17.54000 314.000
17.75000 335.000
17.96000 307.000
18.17000 313.000
18.38000 285.000
18.59000 312.000
18.80000 330.000
19.01000 300.000
19.22000 330.000
19.43000 326.000
19.64000 330.000
19.85000 398.000
20.06000 338.000
20.27000 345.000
20.48000 372.000
20.69000 359.000
20.90000 303.000
21.11000 394.000
21.32000 382.000
21.53000 384.000
21.74000 360.000
21.95000 382.000
22.16000 378.000
22.37000 363.000
22.58000 431.000
22.79000 432.000
23.00000 473.000
23.21000 457.000
23.42000 413.000
23.63000 411.000
23.84000 448.000
24.05000 415.000
24.26000 459.000
24.47000 489.000
24.68000 511.000
24.89000 600.000
25.10000 628.000
25.31000 616.000
25.52000 653.000
25.73000 583.000
25.94000 629.000
26.15000 582.000
26.36000 640.000
26.57000 692.000
26.78000 682.000
26.99000 970.000
27.20000 1518.000
27.41000 727.000
27.62000 563.000
27.83000 479.000
28.04000 432.000
28.25000 429.000
28.46000 380.000
28.67000 380.000
28.88000 364.000
29.09000 353.000
29.30000 358.000
29.51000 324.000
29.72000 341.000
29.93000 378.000
30.14000 363.000
30.35000 433.000
30.56000 381.000
30.77000 305.000
30.98000 313.000
31.19000 282.000
31.40000 288.000
31.61000 299.000
31.82000 272.000
32.03000 263.000
32.24000 263.000
32.45000 261.000
32.66000 237.000
32.87000 275.000
33.08000 236.000
33.29000 263.000
33.50000 256.000
33.71000 238.000
33.92000 242.000
34.13000 239.000
34.34000 242.000
34.55000 242.000
34.76000 264.000
34.97000 229.000
35.18000 212.000
35.39000 203.000
35.60000 204.000
35.81000 188.000
36.02000 193.000
36.23000 201.000
36.44000 188.000
36.65000 197.000
36.86000 190.000
37.07000 171.000
37.28000 199.000
37.49000 192.000
37.70000 177.000
37.91000 193.000
38.12000 187.000
38.33000 201.000
38.54000 171.000
38.75000 196.000
38.96000 169.000
39.17000 166.000
39.38000 179.000
39.59000 179.000
39.80000 200.000
40.01000 216.000
40.22000 205.000
40.43000 186.000
40.64000 174.000
40.85000 193.000
41.06000 199.000
41.27000 196.000
41.48000 181.000
41.69000 194.000
41.90000 191.000
42.11000 173.000
42.32000 178.000
42.53000 176.000
42.74000 164.000
42.95000 170.000
43.16000 182.000
43.37000 163.000
43.58000 161.000
43.79000 167.000
44.00000 169.000
44.21000 172.000
44.42000 159.000
44.63000 155.000
44.84000 156.000
45.05000 173.000
45.26000 147.000
45.47000 185.000
45.68000 167.000
45.89000 172.000
46.10000 168.000
46.31000 171.000
46.52000 158.000
46.73000 160.000
46.94000 149.000
47.15000 174.000
47.36000 130.000
47.57000 166.000
47.78000 169.000
47.99000 169.000
48.20000 160.000
48.41000 163.000
48.62000 147.000
48.83000 164.000
49.04000 151.000
49.25000 141.000
49.46000 144.000
49.67000 136.000
49.88000 139.000
50.09000 126.000
50.30000 127.000
50.51000 132.000
50.72000 147.000
50.93000 150.000
51.14000 151.000
51.35000 136.000
51.56000 152.000
51.77000 146.000
51.98000 143.000
52.19000 141.000
52.40000 161.000
52.61000 144.000
52.82000 146.000
53.03000 154.000
53.24000 149.000
53.45000 160.000
53.66000 148.000
53.87000 140.000
54.08000 157.000
54.29000 136.000
54.50000 121.000
54.71000 134.000
54.92000 130.000
55.13000 148.000
55.34000 133.000
55.55000 128.000
55.76000 126.000
55.97000 151.000
56.18000 151.000
56.39000 139.000
56.60000 131.000
56.81000 135.000
57.02000 115.000
57.23000 133.000
57.44000 136.000
57.65000 118.000
57.86000 146.000
58.07000 128.000
58.28000 127.000
58.49000 120.000
58.70000 113.000
58.91000 132.000
59.12000 114.000
59.33000 111.000
59.54000 133.000
59.75000 113.000
59.96000 130.000
60.17000 114.000
60.38000 121.000
60.59000 107.000
60.80000 109.000
61.01000 119.000
61.22000 119.000
61.43000 132.000
61.64000 109.000
61.85000 123.000
61.98500 110.000