Folder: phd-thesis/ISoD/xrd_data (part 4)

File: HSC010_R01.xyd
    2.000      569
    2.210      450
    2.420      363
    2.630      305
    2.840      249
    3.050      225
    3.260      220
    3.470      228
    3.680      206
    3.890      182
    4.100      204
    4.310      197
    4.520      193
    4.730      179
    4.940      187
    5.150      195
    5.360      159
    5.570      179
    5.780      176
    5.990      234
    6.200      302
    6.410      188
    6.620      195
    6.830      180
    7.040      182
    7.250      168
    7.460      174
    7.670      190
    7.880      182
    8.090      198
    8.300      179
    8.510      183
    8.720      185
    8.930      181
    9.140      184
    9.350      181
    9.560      175
    9.770      172
    9.980      180
   10.190      178
   10.400      187
   10.610      193
   10.820      193
   11.030      214
   11.240      194
   11.450      196
   11.660      211
   11.870      215
   12.080      309
   12.290     1181
   12.500      294
   12.710      233
   12.920      257
   13.130      246
   13.340      311
   13.550      277
   13.760      226
   13.970      237
   14.180      213
   14.390      207
   14.600      227
   14.810      207
   15.020      213
   15.230      193
   15.440      195
   15.650      222
   15.860      227
   16.070      201
   16.280      218
   16.490      259
   16.700      204
   16.910      223
   17.120      222
   17.330      209
   17.540      204
   17.750      221
   17.960      237
   18.170      239
   18.380      238
   18.590      238
   18.800      261
   19.010      228
   19.220      237
   19.430      315
   19.640      294
   19.850      248
   20.060      257
   20.270      263
   20.480      242
   20.690      265
   20.900      264
   21.110      269
   21.320      251
   21.530      291
   21.740      270
   21.950      265
   22.160      276
   22.370      301
   22.580      269
   22.790      242
   23.000      255
   23.210      271
   23.420      284
   23.630      300
   23.840      285
   24.050      256
   24.260      274
   24.470      278
   24.680      289
   24.890      307
   25.100      285
   25.310      328
   25.520      327
   25.730      431
   25.940      382
   26.150      400
   26.360      514
   26.570      460
   26.780      556
   26.990      599
   27.200      727
   27.410      700
   27.620      717
   27.830      845
   28.040      510
   28.250      379
   28.460      319
   28.670      302
   28.880      272
   29.090      261
   29.300      263
   29.510      233
   29.720      220
   29.930      248
   30.140      239
   30.350      236
   30.560      228
   30.770      245
   30.980      235
   31.190      245
   31.400      205
   31.610      219
   31.820      187
   32.030      190
   32.240      166
   32.450      176
   32.660      181
   32.870      170
   33.080      188
   33.290      162
   33.500      150
   33.710      173
   33.920      181
   34.130      164
   34.340      157
   34.550      158
   34.760      150
   34.970      172
   35.180      150
   35.390      134
   35.600      135
   35.810      149
   36.020      121
   36.230      134
   36.440      128
   36.650      103
   36.860      115
   37.070      129
   37.280      120
   37.490      120
   37.700      121
   37.910      117
   38.120      125
   38.330      111
   38.540      136
   38.750      115
   38.960      111
   39.170      119
   39.380      117
   39.590      105
   39.800      121
   40.010      119
   40.220      133
   40.430      124
   40.640      123
   40.850      128
   41.060      129
   41.270      121
   41.480      123
   41.690      116
   41.900      107
   42.110      112
   42.320      123
   42.530      117
   42.740      139
   42.950      109
   43.160      113
   43.370      121
   43.580       96
   43.790      117
   44.000      123
   44.210      134
   44.420      118
   44.630      113
   44.840      113
   45.050      143
   45.260      116
   45.470      126
   45.680      104
   45.890      123
   46.100      102
   46.310      101
   46.520       97
   46.730      116
   46.940      109
   47.150      121
   47.360      117
   47.570       98
   47.780      111
   47.990       95
   48.200       92
   48.410       97
   48.620       85
   48.830       98
   49.040       90
   49.250      101
   49.460      115
   49.670      103
   49.880       93
   50.090       94
   50.300      114
   50.510      101
   50.720       98
   50.930       92
   51.140       81
   51.350       86
   51.560       87
   51.770       87
   51.980       85
   52.190       90
   52.400       81
   52.610      102
   52.820      103
   53.030      111
   53.240      107
   53.450       88
   53.660       97
   53.870      101
   54.080       89
   54.290       87
   54.500      104
   54.710      109
   54.920       92
   55.130       97
   55.340       96
   55.550      101
   55.760       92
   55.970       87
   56.180      100
   56.390      102
   56.600       98
   56.810      100
   57.020      100
   57.230       85
   57.440       89
   57.650       90
   57.860       98
   58.070       79
   58.280       88
   58.490       84
   58.700       71
   58.910       89
   59.120       73
   59.330       70
   59.540       89
   59.750       62
   59.960       81
   60.170       79
   60.380       72
   60.590       89
   60.800       82
   61.010       88
   61.220       72
   61.430       88
   61.640       90
   61.850       83
   61.985       81

File: HSC010_R02.xyd
    2.000      565
    2.210      415
    2.420      333
    2.630      281
    2.840      254
    3.050      217
    3.260      221
    3.470      217
    3.680      209
    3.890      214
    4.100      200
    4.310      170
    4.520      192
    4.730      189
    4.940      180
    5.150      156
    5.360      181
    5.570      207
    5.780      180
    5.990      253
    6.200      285
    6.410      171
    6.620      185
    6.830      171
    7.040      192
    7.250      203
    7.460      158
    7.670      174
    7.880      183
    8.090      179
    8.300      184
    8.510      193
    8.720      175
    8.930      174
    9.140      174
    9.350      169
    9.560      166
    9.770      193
    9.980      185
   10.190      177
   10.400      183
   10.610      206
   10.820      192
   11.030      199
   11.240      199
   11.450      174
   11.660      182
   11.870      221
   12.080      326
   12.290     1251
   12.500      292
   12.710      267
   12.920      246
   13.130      256
   13.340      349
   13.550      244
   13.760      250
   13.970      233
   14.180      231
   14.390      230
   14.600      214
   14.810      213
   15.020      218
   15.230      217
   15.440      204
   15.650      212
   15.860      235
   16.070      207
   16.280      235
   16.490      260
   16.700      229
   16.910      264
   17.120      258
   17.330      229
   17.540      241
   17.750      237
   17.960      252
   18.170      256
   18.380      261
   18.590      249
   18.800      259
   19.010      247
   19.220      229
   19.430      291
   19.640      314
   19.850      249
   20.060      253
   20.270      255
   20.480      239
   20.690      265
   20.900      251
   21.110      252
   21.320      282
   21.530      273
   21.740      274
   21.950      289
   22.160      306
   22.370      272
   22.580      267
   22.790      272
   23.000      254
   23.210      303
   23.420      303
   23.630      267
   23.840      285
   24.050      291
   24.260      267
   24.470      286
   24.680      307
   24.890      303
   25.100      305
   25.310      316
   25.520      309
   25.730      445
   25.940      385
   26.150      424
   26.360      586
   26.570      494
   26.780      572
   26.990      588
   27.200      790
   27.410      711
   27.620      703
   27.830      818
   28.040      467
   28.250      404
   28.460      311
   28.670      324
   28.880      307
   29.090      276
   29.300      246
   29.510      247
   29.720      246
   29.930      255
   30.140      247
   30.350      254
   30.560      224
   30.770      242
   30.980      251
   31.190      240
   31.400      207
   31.610      216
   31.820      193
   32.030      171
   32.240      188
   32.450      160
   32.660      152
   32.870      161
   33.080      167
   33.290      177
   33.500      165
   33.710      185
   33.920      182
   34.130      169
   34.340      172
   34.550      168
   34.760      151
   34.970      138
   35.180      137
   35.390      149
   35.600      124
   35.810      129
   36.020      133
   36.230      123
   36.440      132
   36.650      119
   36.860      133
   37.070      137
   37.280      127
   37.490      135
   37.700      127
   37.910      113
   38.120      118
   38.330      113
   38.540      112
   38.750      118
   38.960      120
   39.170      129
   39.380      121
   39.590      154
   39.800      123
   40.010      119
   40.220      115
   40.430      121
   40.640      121
   40.850      128
   41.060      119
   41.270      134
   41.480      110
   41.690      122
   41.900      116
   42.110      125
   42.320      135
   42.530      122
   42.740      131
   42.950      107
   43.160      128
   43.370      109
   43.580      107
   43.790      113
   44.000      120
   44.210      131
   44.420      136
   44.630      125
   44.840      124
   45.050      107
   45.260      107
   45.470       93
   45.680      105
   45.890      113
   46.100       99
   46.310      126
   46.520      111
   46.730      121
   46.940      119
   47.150      100
   47.360      113
   47.570      107
   47.780       97
   47.990      100
   48.200      108
   48.410      116
   48.620       99
   48.830       91
   49.040      107
   49.250      111
   49.460       90
   49.670      116
   49.880      105
   50.090       98
   50.300       95
   50.510      120
   50.720       94
   50.930      109
   51.140      100
   51.350       95
   51.560       83
   51.770       91
   51.980      103
   52.190       97
   52.400       95
   52.610      111
   52.820      110
   53.030       97
   53.240       89
   53.450      107
   53.660       97
   53.870       81
   54.080       93
   54.290       96
   54.500       88
   54.710       89
   54.920       96
   55.130       89
   55.340      102
   55.550      102
   55.760      120
   55.970      107
   56.180      109
   56.390       83
   56.600       94
   56.810       92
   57.020      105
   57.230       87
   57.440       94
   57.650       93
   57.860       96
   58.070       81
   58.280      101
   58.490       91
   58.700       80
   58.910       74
   59.120       88
   59.330       94
   59.540       85
   59.750       78
   59.960      101
   60.170       77
   60.380       79
   60.590       86
   60.800       92
   61.010       85
   61.220       79
   61.430       76
   61.640       72
   61.850       89
   61.985       88

File: HSC010_range_1.xy
2.00000;569.000
2.21000;450.000
2.42000;363.000
2.63000;305.000
2.84000;249.000
3.05000;225.000
3.26000;220.000
3.47000;228.000
3.68000;206.000
3.89000;182.000
4.10000;204.000
4.31000;197.000
4.52000;193.000
4.73000;179.000
4.94000;187.000
5.15000;195.000
5.36000;159.000
5.57000;179.000
5.78000;176.000
5.99000;234.000
6.20000;302.000
6.41000;188.000
6.62000;195.000
6.83000;180.000
7.04000;182.000
7.25000;168.000
7.46000;174.000
7.67000;190.000
7.88000;182.000
8.09000;198.000
8.30000;179.000
8.51000;183.000
8.72000;185.000
8.93000;181.000
9.14000;184.000
9.35000;181.000
9.56000;175.000
9.77000;172.000
9.98000;180.000
10.19000;178.000
10.40000;187.000
10.61000;193.000
10.82000;193.000
11.03000;214.000
11.24000;194.000
11.45000;196.000
11.66000;211.000
11.87000;215.000
12.08000;309.000
12.29000;1181.000
12.50000;294.000
12.71000;233.000
12.92000;257.000
13.13000;246.000
13.34000;311.000
13.55000;277.000
13.76000;226.000
13.97000;237.000
14.18000;213.000
14.39000;207.000
14.60000;227.000
14.81000;207.000
15.02000;213.000
15.23000;193.000
15.44000;195.000
15.65000;222.000
15.86000;227.000
16.07000;201.000
16.28000;218.000
16.49000;259.000
16.70000;204.000
16.91000;223.000
17.12000;222.000
17.33000;209.000
17.54000;204.000
17.75000;221.000
17.96000;237.000
18.17000;239.000
18.38000;238.000
18.59000;238.000
18.80000;261.000
19.01000;228.000
19.22000;237.000
19.43000;315.000
19.64000;294.000
19.85000;248.000
20.06000;257.000
20.27000;263.000
20.48000;242.000
20.69000;265.000
20.90000;264.000
21.11000;269.000
21.32000;251.000
21.53000;291.000
21.74000;270.000
21.95000;265.000
22.16000;276.000
22.37000;301.000
22.58000;269.000
22.79000;242.000
23.00000;255.000
23.21000;271.000
23.42000;284.000
23.63000;300.000
23.84000;285.000
24.05000;256.000
24.26000;274.000
24.47000;278.000
24.68000;289.000
24.89000;307.000
25.10000;285.000
25.31000;328.000
25.52000;327.000
25.73000;431.000
25.94000;382.000
26.15000;400.000
26.36000;514.000
26.57000;460.000
26.78000;556.000
26.99000;599.000
27.20000;727.000
27.41000;700.000
27.62000;717.000
27.83000;845.000
28.04000;510.000
28.25000;379.000
28.46000;319.000
28.67000;302.000
28.88000;272.000
29.09000;261.000
29.30000;263.000
29.51000;233.000
29.72000;220.000
29.93000;248.000
30.14000;239.000
30.35000;236.000
30.56000;228.000
30.77000;245.000
30.98000;235.000
31.19000;245.000
31.40000;205.000
31.61000;219.000
31.82000;187.000
32.03000;190.000
32.24000;166.000
32.45000;176.000
32.66000;181.000
32.87000;170.000
33.08000;188.000
33.29000;162.000
33.50000;150.000
33.71000;173.000
33.92000;181.000
34.13000;164.000
34.34000;157.000
34.55000;158.000
34.76000;150.000
34.97000;172.000
35.18000;150.000
35.39000;134.000
35.60000;135.000
35.81000;149.000
36.02000;121.000
36.23000;134.000
36.44000;128.000
36.65000;103.000
36.86000;115.000
37.07000;129.000
37.28000;120.000
37.49000;120.000
37.70000;121.000
37.91000;117.000
38.12000;125.000
38.33000;111.000
38.54000;136.000
38.75000;115.000
38.96000;111.000
39.17000;119.000
39.38000;117.000
39.59000;105.000
39.80000;121.000
40.01000;119.000
40.22000;133.000
40.43000;124.000
40.64000;123.000
40.85000;128.000
41.06000;129.000
41.27000;121.000
41.48000;123.000
41.69000;116.000
41.90000;107.000
42.11000;112.000
42.32000;123.000
42.53000;117.000
42.74000;139.000
42.95000;109.000
43.16000;113.000
43.37000;121.000
43.58000;96.000
43.79000;117.000
44.00000;123.000
44.21000;134.000
44.42000;118.000
44.63000;113.000
44.84000;113.000
45.05000;143.000
45.26000;116.000
45.47000;126.000
45.68000;104.000
45.89000;123.000
46.10000;102.000
46.31000;101.000
46.52000;97.000
46.73000;116.000
46.94000;109.000
47.15000;121.000
47.36000;117.000
47.57000;98.000
47.78000;111.000
47.99000;95.000
48.20000;92.000
48.41000;97.000
48.62000;85.000
48.83000;98.000
49.04000;90.000
49.25000;101.000
49.46000;115.000
49.67000;103.000
49.88000;93.000
50.09000;94.000
50.30000;114.000
50.51000;101.000
50.72000;98.000
50.93000;92.000
51.14000;81.000
51.35000;86.000
51.56000;87.000
51.77000;87.000
51.98000;85.000
52.19000;90.000
52.40000;81.000
52.61000;102.000
52.82000;103.000
53.03000;111.000
53.24000;107.000
53.45000;88.000
53.66000;97.000
53.87000;101.000
54.08000;89.000
54.29000;87.000
54.50000;104.000
54.71000;109.000
54.92000;92.000
55.13000;97.000
55.34000;96.000
55.55000;101.000
55.76000;92.000
55.97000;87.000
56.18000;100.000
56.39000;102.000
56.60000;98.000
56.81000;100.000
57.02000;100.000
57.23000;85.000
57.44000;89.000
57.65000;90.000
57.86000;98.000
58.07000;79.000
58.28000;88.000
58.49000;84.000
58.70000;71.000
58.91000;89.000
59.12000;73.000
59.33000;70.000
59.54000;89.000
59.75000;62.000
59.96000;81.000
60.17000;79.000
60.38000;72.000
60.59000;89.000
60.80000;82.000
61.01000;88.000
61.22000;72.000
61.43000;88.000
61.64000;90.000
61.85000;83.000
61.98500;81.000

File: HSC010_ranges_combined.xy
2.0 1134.0
2.21 865.0
2.42 696.0
2.63 586.0
2.84 503.0
3.05 442.0
3.26 441.0
3.47 445.0
3.68 415.0
3.89 396.0
4.1 404.0
4.31 367.0
4.52 385.0
4.73 368.0
4.94 367.0
5.15 351.0
5.36 340.0
5.57 386.0
5.78 356.0
5.99 487.0
6.2 587.0
6.41 359.0
6.62 380.0
6.83 351.0
7.04 374.0
7.25 371.0
7.46 332.0
7.67 364.0
7.88 365.0
8.09 377.0
8.3 363.0
8.51 376.0
8.72 360.0
8.93 355.0
9.14 358.0
9.35 350.0
9.56 341.0
9.77 365.0
9.98 365.0
10.19 355.0
10.4 370.0
10.61 399.0
10.82 385.0
11.03 413.0
11.24 393.0
11.45 370.0
11.66 393.0
11.87 436.0
12.08 635.0
12.29 2432.0
12.5 586.0
12.71 500.0
12.92 503.0
13.13 502.0
13.34 660.0
13.55 521.0
13.76 476.0
13.97 470.0
14.18 444.0
14.39 437.0
14.6 441.0
14.81 420.0
15.02 431.0
15.23 410.0
15.44 399.0
15.65 434.0
15.86 462.0
16.07 408.0
16.28 453.0
16.49 519.0
16.7 433.0
16.91 487.0
17.12 480.0
17.33 438.0
17.54 445.0
17.75 458.0
17.96 489.0
18.17 495.0
18.38 499.0
18.59 487.0
18.8 520.0
19.01 475.0
19.22 466.0
19.43 606.0
19.64 608.0
19.85 497.0
20.06 510.0
20.27 518.0
20.48 481.0
20.69 530.0
20.9 515.0
21.11 521.0
21.32 533.0
21.53 564.0
21.74 544.0
21.95 554.0
22.16 582.0
22.37 573.0
22.58 536.0
22.79 514.0
23.0 509.0
23.21 574.0
23.42 587.0
23.63 567.0
23.84 570.0
24.05 547.0
24.26 541.0
24.47 564.0
24.68 596.0
24.89 610.0
25.1 590.0
25.31 644.0
25.52 636.0
25.73 876.0
25.94 767.0
26.15 824.0
26.36 1100.0
26.57 954.0
26.78 1128.0
26.99 1187.0
27.2 1517.0
27.41 1411.0
27.62 1420.0
27.83 1663.0
28.04 977.0
28.25 783.0
28.46 630.0
28.67 626.0
28.88 579.0
29.09 537.0
29.3 509.0
29.51 480.0
29.72 466.0
29.93 503.0
30.14 486.0
30.35 490.0
30.56 452.0
30.77 487.0
30.98 486.0
31.19 485.0
31.4 412.0
31.61 435.0
31.82 380.0
32.03 361.0
32.24 354.0
32.45 336.0
32.66 333.0
32.87 331.0
33.08 355.0
33.29 339.0
33.5 315.0
33.71 358.0
33.92 363.0
34.13 333.0
34.34 329.0
34.55 326.0
34.76 301.0
34.97 310.0
35.18 287.0
35.39 283.0
35.6 259.0
35.81 278.0
36.02 254.0
36.23 257.0
36.44 260.0
36.65 222.0
36.86 248.0
37.07 266.0
37.28 247.0
37.49 255.0
37.7 248.0
37.91 230.0
38.12 243.0
38.33 224.0
38.54 248.0
38.75 233.0
38.96 231.0
39.17 248.0
39.38 238.0
39.59 259.0
39.8 244.0
40.01 238.0
40.22 248.0
40.43 245.0
40.64 244.0
40.85 256.0
41.06 248.0
41.27 255.0
41.48 233.0
41.69 238.0
41.9 223.0
42.11 237.0
42.32 258.0
42.53 239.0
42.74 270.0
42.95 216.0
43.16 241.0
43.37 230.0
43.58 203.0
43.79 230.0
44.0 243.0
44.21 265.0
44.42 254.0
44.63 238.0
44.84 237.0
45.05 250.0
45.26 223.0
45.47 219.0
45.68 209.0
45.89 236.0
46.1 201.0
46.31 227.0
46.52 208.0
46.73 237.0
46.94 228.0
47.15 221.0
47.36 230.0
47.57 205.0
47.78 208.0
47.99 195.0
48.2 200.0
48.41 213.0
48.62 184.0
48.83 189.0
49.04 197.0
49.25 212.0
49.46 205.0
49.67 219.0
49.88 198.0
50.09 192.0
50.3 209.0
50.51 221.0
50.72 192.0
50.93 201.0
51.14 181.0
51.35 181.0
51.56 170.0
51.77 178.0
51.98 188.0
52.19 187.0
52.4 176.0
52.61 213.0
52.82 213.0
53.03 208.0
53.24 196.0
53.45 195.0
53.66 194.0
53.87 182.0
54.08 182.0
54.29 183.0
54.5 192.0
54.71 198.0
54.92 188.0
55.13 186.0
55.34 198.0
55.55 203.0
55.76 212.0
55.97 194.0
56.18 209.0
56.39 185.0
56.6 192.0
56.81 192.0
57.02 205.0
57.23 172.0
57.44 183.0
57.65 183.0
57.86 194.0
58.07 160.0
58.28 189.0
58.49 175.0
58.7 151.0
58.91 163.0
59.12 161.0
59.33 164.0
59.54 174.0
59.75 140.0
59.96 182.0
60.17 156.0
60.38 151.0
60.59 175.0
60.8 174.0
61.01 173.0
61.22 151.0
61.43 164.0
61.64 162.0
61.85 172.0
61.985 169.0

File: HSC010_ranges_combined.xyd
2.000 569.0
2.210 450.0
2.420 363.0
2.630 305.0
2.840 249.0
3.050 225.0
3.260 220.0
3.470 228.0
3.680 206.0
3.890 182.0
4.100 204.0
4.310 197.0
4.520 193.0
4.730 179.0
4.940 187.0
5.150 195.0
5.360 159.0
5.570 179.0
5.780 176.0
5.990 234.0
6.200 302.0
6.410 188.0
6.620 195.0
6.830 180.0
7.040 182.0
7.250 168.0
7.460 174.0
7.670 190.0
7.880 182.0
8.090 198.0
8.300 179.0
8.510 183.0
8.720 185.0
8.930 181.0
9.140 184.0
9.350 181.0
9.560 175.0
9.770 172.0
9.980 180.0
10.190 178.0
10.400 187.0
10.610 193.0
10.820 193.0
11.030 214.0
11.240 194.0
11.450 196.0
11.660 211.0
11.870 215.0
12.080 309.0
"12.290     1181"
12.500 294.0
12.710 233.0
12.920 257.0
13.130 246.0
13.340 311.0
13.550 277.0
13.760 226.0
13.970 237.0
14.180 213.0
14.390 207.0
14.600 227.0
14.810 207.0
15.020 213.0
15.230 193.0
15.440 195.0
15.650 222.0
15.860 227.0
16.070 201.0
16.280 218.0
16.490 259.0
16.700 204.0
16.910 223.0
17.120 222.0
17.330 209.0
17.540 204.0
17.750 221.0
17.960 237.0
18.170 239.0
18.380 238.0
18.590 238.0
18.800 261.0
19.010 228.0
19.220 237.0
19.430 315.0
19.640 294.0
19.850 248.0
20.060 257.0
20.270 263.0
20.480 242.0
20.690 265.0
20.900 264.0
21.110 269.0
21.320 251.0
21.530 291.0
21.740 270.0
21.950 265.0
22.160 276.0
22.370 301.0
22.580 269.0
22.790 242.0
23.000 255.0
23.210 271.0
23.420 284.0
23.630 300.0
23.840 285.0
24.050 256.0
24.260 274.0
24.470 278.0
24.680 289.0
24.890 307.0
25.100 285.0
25.310 328.0
25.520 327.0
25.730 431.0
25.940 382.0
26.150 400.0
26.360 514.0
26.570 460.0
26.780 556.0
26.990 599.0
27.200 727.0
27.410 700.0
27.620 717.0
27.830 845.0
28.040 510.0
28.250 379.0
28.460 319.0
28.670 302.0
28.880 272.0
29.090 261.0
29.300 263.0
29.510 233.0
29.720 220.0
29.930 248.0
30.140 239.0
30.350 236.0
30.560 228.0
30.770 245.0
30.980 235.0
31.190 245.0
31.400 205.0
31.610 219.0
31.820 187.0
32.030 190.0
32.240 166.0
32.450 176.0
32.660 181.0
32.870 170.0
33.080 188.0
33.290 162.0
33.500 150.0
33.710 173.0
33.920 181.0
34.130 164.0
34.340 157.0
34.550 158.0
34.760 150.0
34.970 172.0
35.180 150.0
35.390 134.0
35.600 135.0
35.810 149.0
36.020 121.0
36.230 134.0
36.440 128.0
36.650 103.0
36.860 115.0
37.070 129.0
37.280 120.0
37.490 120.0
37.700 121.0
37.910 117.0
38.120 125.0
38.330 111.0
38.540 136.0
38.750 115.0
38.960 111.0
39.170 119.0
39.380 117.0
39.590 105.0
39.800 121.0
40.010 119.0
40.220 133.0
40.430 124.0
40.640 123.0
40.850 128.0
41.060 129.0
41.270 121.0
41.480 123.0
41.690 116.0
41.900 107.0
42.110 112.0
42.320 123.0
42.530 117.0
42.740 139.0
42.950 109.0
43.160 113.0
43.370 121.0
43.580 96.0
43.790 117.0
44.000 123.0
44.210 134.0
44.420 118.0
44.630 113.0
44.840 113.0
45.050 143.0
45.260 116.0
45.470 126.0
45.680 104.0
45.890 123.0
46.100 102.0
46.310 101.0
46.520 97.0
46.730 116.0
46.940 109.0
47.150 121.0
47.360 117.0
47.570 98.0
47.780 111.0
47.990 95.0
48.200 92.0
48.410 97.0
48.620 85.0
48.830 98.0
49.040 90.0
49.250 101.0
49.460 115.0
49.670 103.0
49.880 93.0
50.090 94.0
50.300 114.0
50.510 101.0
50.720 98.0
50.930 92.0
51.140 81.0
51.350 86.0
51.560 87.0
51.770 87.0
51.980 85.0
52.190 90.0
52.400 81.0
52.610 102.0
52.820 103.0
53.030 111.0
53.240 107.0
53.450 88.0
53.660 97.0
53.870 101.0
54.080 89.0
54.290 87.0
54.500 104.0
54.710 109.0
54.920 92.0
55.130 97.0
55.340 96.0
55.550 101.0
55.760 92.0
55.970 87.0
56.180 100.0
56.390 102.0
56.600 98.0
56.810 100.0
57.020 100.0
57.230 85.0
57.440 89.0
57.650 90.0
57.860 98.0
58.070 79.0
58.280 88.0
58.490 84.0
58.700 71.0
58.910 89.0
59.120 73.0
59.330 70.0
59.540 89.0
59.750 62.0
59.960 81.0
60.170 79.0
60.380 72.0
60.590 89.0
60.800 82.0
61.010 88.0
61.220 72.0
61.430 88.0
61.640 90.0
61.850 83.0
61.985 81.0