Folder: phd-thesis/ISoD/xrd_data (part 11)

File: HSC064_Rueck.xy
2.00000 4.000
2.21000 4.000
2.42000 6.000
2.63000 2.000
2.84000 3.000
3.05000 4.000
3.26000 546.000
3.47000 652.000
3.68000 568.000
3.89000 491.000
4.10000 412.000
4.31000 385.000
4.52000 321.000
4.73000 285.000
4.94000 255.000
5.15000 248.000
5.36000 217.000
5.57000 237.000
5.78000 221.000
5.99000 218.000
6.20000 204.000
6.41000 202.000
6.62000 197.000
6.83000 203.000
7.04000 212.000
7.25000 216.000
7.46000 249.000
7.67000 325.000
7.88000 518.000
8.09000 693.000
8.30000 548.000
8.51000 503.000
8.72000 468.000
8.93000 443.000
9.14000 404.000
9.35000 375.000
9.56000 373.000
9.77000 307.000
9.98000 288.000
10.19000 228.000
10.40000 214.000
10.61000 212.000
10.82000 192.000
11.03000 177.000
11.24000 189.000
11.45000 182.000
11.66000 198.000
11.87000 166.000
12.08000 165.000
12.29000 166.000
12.50000 172.000
12.71000 163.000
12.92000 187.000
13.13000 177.000
13.34000 183.000
13.55000 194.000
13.76000 192.000
13.97000 185.000
14.18000 190.000
14.39000 166.000
14.60000 192.000
14.81000 178.000
15.02000 183.000
15.23000 197.000
15.44000 187.000
15.65000 184.000
15.86000 224.000
16.07000 194.000
16.28000 216.000
16.49000 216.000
16.70000 213.000
16.91000 206.000
17.12000 198.000
17.33000 185.000
17.54000 200.000
17.75000 203.000
17.96000 213.000
18.17000 179.000
18.38000 181.000
18.59000 198.000
18.80000 190.000
19.01000 200.000
19.22000 166.000
19.43000 212.000
19.64000 186.000
19.85000 175.000
20.06000 188.000
20.27000 184.000
20.48000 194.000
20.69000 212.000
20.90000 206.000
21.11000 227.000
21.32000 238.000
21.53000 285.000
21.74000 258.000
21.95000 249.000
22.16000 239.000
22.37000 241.000
22.58000 267.000
22.79000 243.000
23.00000 226.000
23.21000 256.000
23.42000 301.000
23.63000 295.000
23.84000 269.000
24.05000 274.000
24.26000 305.000
24.47000 305.000
24.68000 322.000
24.89000 325.000
25.10000 302.000
25.31000 317.000
25.52000 362.000
25.73000 327.000
25.94000 302.000
26.15000 346.000
26.36000 353.000
26.57000 328.000
26.78000 342.000
26.99000 340.000
27.20000 381.000
27.41000 361.000
27.62000 421.000
27.83000 537.000
28.04000 763.000
28.25000 1386.000
28.46000 2267.000
28.67000 1471.000
28.88000 744.000
29.09000 563.000
29.30000 450.000
29.51000 416.000
29.72000 358.000
29.93000 340.000
30.14000 323.000
30.35000 302.000
30.56000 305.000
30.77000 276.000
30.98000 281.000
31.19000 268.000
31.40000 265.000
31.61000 265.000
31.82000 262.000
32.03000 267.000
32.24000 255.000
32.45000 301.000
32.66000 266.000
32.87000 228.000
33.08000 204.000
33.29000 182.000
33.50000 194.000
33.71000 198.000
33.92000 232.000
34.13000 202.000
34.34000 195.000
34.55000 183.000
34.76000 182.000
34.97000 215.000
35.18000 224.000
35.39000 290.000
35.60000 308.000
35.81000 276.000
36.02000 270.000
36.23000 264.000
36.44000 273.000
36.65000 260.000
36.86000 251.000
37.07000 300.000
37.28000 275.000
37.49000 260.000
37.70000 236.000
37.91000 227.000
38.12000 238.000
38.33000 215.000
38.54000 222.000
38.75000 207.000
38.96000 221.000
39.17000 194.000
39.38000 223.000
39.59000 200.000
39.80000 196.000
40.01000 186.000
40.22000 195.000
40.43000 188.000
40.64000 166.000
40.85000 162.000
41.06000 160.000
41.27000 154.000
41.48000 154.000
41.69000 168.000
41.90000 158.000
42.11000 147.000
42.32000 177.000
42.53000 179.000
42.74000 177.000
42.95000 177.000
43.16000 180.000
43.37000 222.000
43.58000 219.000
43.79000 216.000
44.00000 224.000
44.21000 213.000
44.42000 204.000
44.63000 202.000
44.84000 190.000
45.05000 203.000
45.26000 185.000
45.47000 190.000
45.68000 181.000
45.89000 187.000
46.10000 172.000
46.31000 163.000
46.52000 139.000
46.73000 140.000
46.94000 135.000
47.15000 153.000
47.36000 138.000
47.57000 130.000
47.78000 130.000
47.99000 125.000
48.20000 136.000
48.41000 137.000
48.62000 112.000
48.83000 112.000
49.04000 134.000
49.25000 132.000
49.46000 132.000
49.67000 121.000
49.88000 129.000
50.09000 133.000
50.30000 133.000
50.51000 142.000
50.72000 133.000
50.93000 131.000
51.14000 127.000
51.35000 130.000
51.56000 126.000
51.77000 125.000
51.98000 145.000
52.19000 125.000
52.40000 139.000
52.61000 107.000
52.82000 127.000
53.03000 141.000
53.24000 133.000
53.45000 118.000
53.66000 136.000
53.87000 120.000
54.08000 127.000
54.29000 128.000
54.50000 115.000
54.71000 131.000
54.92000 117.000
55.13000 110.000
55.34000 127.000
55.55000 106.000
55.76000 111.000
55.97000 101.000
56.18000 111.000
56.39000 113.000
56.60000 111.000
56.81000 123.000
57.02000 114.000
57.23000 109.000
57.44000 99.000
57.65000 115.000
57.86000 121.000
58.07000 124.000
58.28000 137.000
58.49000 136.000
58.70000 147.000
58.91000 146.000
59.12000 153.000
59.33000 129.000
59.54000 127.000
59.75000 117.000
59.96000 121.000
60.17000 114.000
60.38000 124.000
60.59000 118.000
60.80000 106.000
61.01000 98.000
61.22000 107.000
61.43000 101.000
61.64000 102.000
61.85000 90.000
61.98500 99.000

File: HSC065.xy
2.00000 2.000
2.21000 3.000
2.42000 3.000
2.63000 6.000
2.84000 3.000
3.05000 381.000
3.26000 387.000
3.47000 405.000
3.68000 351.000
3.89000 375.000
4.10000 351.000
4.31000 361.000
4.52000 354.000
4.73000 345.000
4.94000 392.000
5.15000 372.000
5.36000 385.000
5.57000 373.000
5.78000 383.000
5.99000 397.000
6.20000 404.000
6.41000 412.000
6.62000 410.000
6.83000 397.000
7.04000 413.000
7.25000 411.000
7.46000 425.000
7.67000 435.000
7.88000 391.000
8.09000 394.000
8.30000 383.000
8.51000 418.000
8.72000 411.000
8.93000 388.000
9.14000 398.000
9.35000 449.000
9.56000 426.000
9.77000 444.000
9.98000 441.000
10.19000 565.000
10.40000 503.000
10.61000 515.000
10.82000 565.000
11.03000 567.000
11.24000 493.000
11.45000 435.000
11.66000 478.000
11.87000 713.000
12.08000 2857.000
12.29000 493.000
12.50000 491.000
12.71000 475.000
12.92000 446.000
13.13000 436.000
13.34000 411.000
13.55000 422.000
13.76000 424.000
13.97000 430.000
14.18000 443.000
14.39000 447.000
14.60000 421.000
14.81000 461.000
15.02000 414.000
15.23000 451.000
15.44000 444.000
15.65000 441.000
15.86000 440.000
16.07000 416.000
16.28000 435.000
16.49000 451.000
16.70000 439.000
16.91000 470.000
17.12000 461.000
17.33000 455.000
17.54000 415.000
17.75000 457.000
17.96000 443.000
18.17000 432.000
18.38000 449.000
18.59000 450.000
18.80000 473.000
19.01000 448.000
19.22000 456.000
19.43000 455.000
19.64000 453.000
19.85000 491.000
20.06000 461.000
20.27000 492.000
20.48000 495.000
20.69000 590.000
20.90000 1950.000
21.11000 1033.000
21.32000 537.000
21.53000 537.000
21.74000 520.000
21.95000 479.000
22.16000 488.000
22.37000 511.000
22.58000 473.000
22.79000 518.000
23.00000 488.000
23.21000 461.000
23.42000 512.000
23.63000 493.000
23.84000 482.000
24.05000 589.000
24.26000 2360.000
24.47000 695.000
24.68000 906.000
24.89000 1072.000
25.10000 620.000
25.31000 582.000
25.52000 560.000
25.73000 577.000
25.94000 647.000
26.15000 1358.000
26.36000 6372.000
26.57000 1563.000
26.78000 745.000
26.99000 622.000
27.20000 592.000
27.41000 564.000
27.62000 623.000
27.83000 703.000
28.04000 785.000
28.25000 656.000
28.46000 630.000
28.67000 873.000
28.88000 2099.000
29.09000 5071.000
29.30000 2369.000
29.51000 787.000
29.72000 542.000
29.93000 503.000
30.14000 458.000
30.35000 451.000
30.56000 460.000
30.77000 378.000
30.98000 443.000
31.19000 405.000
31.40000 382.000
31.61000 367.000
31.82000 428.000
32.03000 459.000
32.24000 1907.000
32.45000 777.000
32.66000 404.000
32.87000 399.000
33.08000 332.000
33.29000 372.000
33.50000 397.000
33.71000 429.000
33.92000 530.000
34.13000 475.000
34.34000 357.000
34.55000 340.000
34.76000 357.000
34.97000 572.000
35.18000 386.000
35.39000 306.000
35.60000 321.000
35.81000 342.000
36.02000 448.000
36.23000 519.000
36.44000 387.000
36.65000 323.000
36.86000 323.000
37.07000 259.000
37.28000 256.000
37.49000 271.000
37.70000 251.000
37.91000 246.000
38.12000 229.000
38.33000 253.000
38.54000 251.000
38.75000 254.000
38.96000 233.000
39.17000 254.000
39.38000 262.000
39.59000 251.000
39.80000 236.000
40.01000 244.000
40.22000 240.000
40.43000 251.000
40.64000 243.000
40.85000 242.000
41.06000 256.000
41.27000 241.000
41.48000 240.000
41.69000 223.000
41.90000 298.000
42.11000 305.000
42.32000 288.000
42.53000 273.000
42.74000 744.000
42.95000 264.000
43.16000 247.000
43.37000 245.000
43.58000 247.000
43.79000 263.000
44.00000 252.000
44.21000 246.000
44.42000 346.000
44.63000 721.000
44.84000 615.000
45.05000 463.000
45.26000 306.000
45.47000 332.000
45.68000 434.000
45.89000 478.000
46.10000 340.000
46.31000 311.000
46.52000 381.000
46.73000 444.000
46.94000 270.000
47.15000 234.000
47.36000 235.000
47.57000 214.000
47.78000 191.000
47.99000 227.000
48.20000 228.000
48.41000 220.000
48.62000 195.000
48.83000 205.000
49.04000 196.000
49.25000 243.000
49.46000 227.000
49.67000 309.000
49.88000 281.000
50.09000 232.000
50.30000 302.000
50.51000 400.000
50.72000 658.000
50.93000 895.000
51.14000 574.000
51.35000 382.000
51.56000 289.000
51.77000 228.000
51.98000 249.000
52.19000 238.000
52.40000 256.000
52.61000 281.000
52.82000 231.000
53.03000 221.000
53.24000 215.000
53.45000 213.000
53.66000 239.000
53.87000 250.000
54.08000 394.000
54.29000 583.000
54.50000 909.000
54.71000 440.000
54.92000 234.000
55.13000 213.000
55.34000 203.000
55.55000 219.000
55.76000 217.000
55.97000 186.000
56.18000 209.000
56.39000 195.000
56.60000 210.000
56.81000 214.000
57.02000 205.000
57.23000 207.000
57.44000 230.000
57.65000 264.000
57.86000 214.000
58.07000 172.000
58.28000 194.000
58.49000 200.000
58.70000 248.000
58.91000 248.000
59.12000 213.000
59.33000 249.000
59.54000 231.000
59.75000 223.000
59.96000 226.000
60.17000 210.000
60.38000 240.000
60.59000 212.000
60.80000 193.000
61.01000 194.000
61.22000 212.000
61.43000 205.000
61.64000 210.000
61.85000 175.000
61.98500 190.000

File: HSC067.xy
2.00000 7.000
2.21000 3.000
2.42000 4.000
2.63000 4.000
2.84000 934.000
3.05000 847.000
3.26000 731.000
3.47000 647.000
3.68000 576.000
3.89000 548.000
4.10000 503.000
4.31000 498.000
4.52000 448.000
4.73000 469.000
4.94000 462.000
5.15000 431.000
5.36000 429.000
5.57000 430.000
5.78000 436.000
5.99000 425.000
6.20000 398.000
6.41000 429.000
6.62000 454.000
6.83000 395.000
7.04000 470.000
7.25000 467.000
7.46000 478.000
7.67000 518.000
7.88000 546.000
8.09000 637.000
8.30000 626.000
8.51000 634.000
8.72000 496.000
8.93000 478.000
9.14000 437.000
9.35000 418.000
9.56000 435.000
9.77000 443.000
9.98000 404.000
10.19000 446.000
10.40000 404.000
10.61000 427.000
10.82000 442.000
11.03000 479.000
11.24000 479.000
11.45000 526.000
11.66000 558.000
11.87000 621.000
12.08000 608.000
12.29000 587.000
12.50000 543.000
12.71000 511.000
12.92000 465.000
13.13000 439.000
13.34000 427.000
13.55000 415.000
13.76000 448.000
13.97000 465.000
14.18000 452.000
14.39000 415.000
14.60000 425.000
14.81000 438.000
15.02000 405.000
15.23000 410.000
15.44000 421.000
15.65000 418.000
15.86000 409.000
16.07000 409.000
16.28000 419.000
16.49000 420.000
16.70000 402.000
16.91000 408.000
17.12000 438.000
17.33000 422.000
17.54000 425.000
17.75000 421.000
17.96000 405.000
18.17000 425.000
18.38000 410.000
18.59000 442.000
18.80000 450.000
19.01000 426.000
19.22000 434.000
19.43000 429.000
19.64000 441.000
19.85000 438.000
20.06000 477.000
20.27000 504.000
20.48000 491.000
20.69000 525.000
20.90000 514.000
21.11000 535.000
21.32000 544.000
21.53000 536.000
21.74000 515.000
21.95000 468.000
22.16000 487.000
22.37000 475.000
22.58000 509.000
22.79000 500.000
23.00000 485.000
23.21000 522.000
23.42000 528.000
23.63000 538.000
23.84000 542.000
24.05000 542.000
24.26000 541.000
24.47000 568.000
24.68000 547.000
24.89000 585.000
25.10000 573.000
25.31000 632.000
25.52000 614.000
25.73000 695.000
25.94000 714.000
26.15000 795.000
26.36000 871.000
26.57000 1005.000
26.78000 1022.000
26.99000 1069.000
27.20000 1040.000
27.41000 974.000
27.62000 980.000
27.83000 957.000
28.04000 930.000
28.25000 918.000
28.46000 867.000
28.67000 757.000
28.88000 670.000
29.09000 694.000
29.30000 689.000
29.51000 663.000
29.72000 626.000
29.93000 580.000
30.14000 504.000
30.35000 512.000
30.56000 501.000
30.77000 477.000
30.98000 494.000
31.19000 482.000
31.40000 460.000
31.61000 447.000
31.82000 424.000
32.03000 455.000
32.24000 452.000
32.45000 430.000
32.66000 430.000
32.87000 404.000
33.08000 403.000
33.29000 398.000
33.50000 364.000
33.71000 377.000
33.92000 374.000
34.13000 316.000
34.34000 361.000
34.55000 333.000
34.76000 321.000
34.97000 315.000
35.18000 331.000
35.39000 319.000
35.60000 313.000
35.81000 328.000
36.02000 325.000
36.23000 343.000
36.44000 327.000
36.65000 293.000
36.86000 310.000
37.07000 297.000
37.28000 275.000
37.49000 299.000
37.70000 316.000
37.91000 277.000
38.12000 275.000
38.33000 259.000
38.54000 280.000
38.75000 254.000
38.96000 260.000
39.17000 279.000
39.38000 253.000
39.59000 287.000
39.80000 270.000
40.01000 273.000
40.22000 239.000
40.43000 267.000
40.64000 245.000
40.85000 242.000
41.06000 241.000
41.27000 244.000
41.48000 268.000
41.69000 236.000
41.90000 263.000
42.11000 264.000
42.32000 264.000
42.53000 289.000
42.74000 274.000
42.95000 285.000
43.16000 287.000
43.37000 288.000
43.58000 237.000
43.79000 303.000
44.00000 262.000
44.21000 255.000
44.42000 275.000
44.63000 282.000
44.84000 256.000
45.05000 259.000
45.26000 263.000
45.47000 253.000
45.68000 255.000
45.89000 229.000
46.10000 231.000
46.31000 247.000
46.52000 233.000
46.73000 244.000
46.94000 233.000
47.15000 214.000
47.36000 210.000
47.57000 218.000
47.78000 205.000
47.99000 210.000
48.20000 207.000
48.41000 196.000
48.62000 204.000
48.83000 180.000
49.04000 197.000
49.25000 202.000
49.46000 208.000
49.67000 192.000
49.88000 189.000
50.09000 207.000
50.30000 192.000
50.51000 220.000
50.72000 206.000
50.93000 205.000
51.14000 219.000
51.35000 215.000
51.56000 195.000
51.77000 179.000
51.98000 199.000
52.19000 192.000
52.40000 193.000
52.61000 179.000
52.82000 192.000
53.03000 190.000
53.24000 191.000
53.45000 205.000
53.66000 205.000
53.87000 192.000
54.08000 189.000
54.29000 207.000
54.50000 201.000
54.71000 215.000
54.92000 199.000
55.13000 188.000
55.34000 197.000
55.55000 210.000
55.76000 221.000
55.97000 195.000
56.18000 202.000
56.39000 194.000
56.60000 177.000
56.81000 192.000
57.02000 193.000
57.23000 191.000
57.44000 192.000
57.65000 178.000
57.86000 192.000
58.07000 162.000
58.28000 157.000
58.49000 175.000
58.70000 176.000
58.91000 179.000
59.12000 167.000
59.33000 177.000
59.54000 178.000
59.75000 154.000
59.96000 170.000
60.17000 164.000
60.38000 172.000
60.59000 154.000
60.80000 165.000
61.01000 167.000
61.22000 170.000
61.43000 154.000
61.64000 153.000
61.85000 162.000
61.98500 176.000

File: HSC069.xy
2.00000 5.000
2.21000 4.000
2.42000 5.000
2.63000 4.000
2.84000 3.000
3.05000 7.000
3.26000 136.000
3.47000 388.000
3.68000 368.000
3.89000 370.000
4.10000 322.000
4.31000 339.000
4.52000 348.000
4.73000 381.000
4.94000 371.000
5.15000 367.000
5.36000 370.000
5.57000 388.000
5.78000 371.000
5.99000 388.000
6.20000 395.000
6.41000 385.000
6.62000 406.000
6.83000 411.000
7.04000 415.000
7.25000 403.000
7.46000 416.000
7.67000 444.000
7.88000 426.000
8.09000 422.000
8.30000 395.000
8.51000 438.000
8.72000 457.000
8.93000 418.000
9.14000 458.000
9.35000 414.000
9.56000 440.000
9.77000 449.000
9.98000 425.000
10.19000 466.000
10.40000 483.000
10.61000 449.000
10.82000 429.000
11.03000 438.000
11.24000 431.000
11.45000 453.000
11.66000 443.000
11.87000 457.000
12.08000 469.000
12.29000 435.000
12.50000 455.000
12.71000 420.000
12.92000 447.000
13.13000 435.000
13.34000 418.000
13.55000 420.000
13.76000 435.000
13.97000 425.000
14.18000 442.000
14.39000 459.000
14.60000 431.000
14.81000 468.000
15.02000 468.000
15.23000 443.000
15.44000 452.000
15.65000 447.000
15.86000 446.000
16.07000 444.000
16.28000 458.000
16.49000 430.000
16.70000 487.000
16.91000 467.000
17.12000 450.000
17.33000 466.000
17.54000 466.000
17.75000 466.000
17.96000 467.000
18.17000 489.000
18.38000 441.000
18.59000 470.000
18.80000 499.000
19.01000 491.000
19.22000 509.000
19.43000 479.000
19.64000 453.000
19.85000 479.000
20.06000 475.000
20.27000 480.000
20.48000 483.000
20.69000 484.000
20.90000 519.000
21.11000 495.000
21.32000 507.000
21.53000 511.000
21.74000 493.000
21.95000 502.000
22.16000 514.000
22.37000 515.000
22.58000 479.000
22.79000 515.000
23.00000 517.000
23.21000 516.000
23.42000 513.000
23.63000 539.000
23.84000 550.000
24.05000 555.000
24.26000 553.000
24.47000 551.000
24.68000 576.000
24.89000 600.000
25.10000 589.000
25.31000 561.000
25.52000 611.000
25.73000 625.000
25.94000 599.000
26.15000 651.000
26.36000 710.000
26.57000 726.000
26.78000 707.000
26.99000 758.000
27.20000 765.000
27.41000 751.000
27.62000 712.000
27.83000 656.000
28.04000 637.000
28.25000 599.000
28.46000 553.000
28.67000 510.000
28.88000 509.000
29.09000 499.000
29.30000 485.000
29.51000 476.000
29.72000 459.000
29.93000 429.000
30.14000 419.000
30.35000 405.000
30.56000 430.000
30.77000 406.000
30.98000 386.000
31.19000 407.000
31.40000 415.000
31.61000 369.000
31.82000 374.000
32.03000 376.000
32.24000 347.000
32.45000 350.000
32.66000 352.000
32.87000 317.000
33.08000 310.000
33.29000 302.000
33.50000 317.000
33.71000 314.000
33.92000 323.000
34.13000 318.000
34.34000 299.000
34.55000 299.000
34.76000 310.000
34.97000 278.000
35.18000 295.000
35.39000 286.000
35.60000 281.000
35.81000 280.000
36.02000 266.000
36.23000 271.000
36.44000 263.000
36.65000 255.000
36.86000 269.000
37.07000 234.000
37.28000 275.000
37.49000 232.000
37.70000 235.000
37.91000 231.000
38.12000 236.000
38.33000 217.000
38.54000 217.000
38.75000 236.000
38.96000 254.000
39.17000 217.000
39.38000 207.000
39.59000 227.000
39.80000 223.000
40.01000 238.000
40.22000 223.000
40.43000 213.000
40.64000 201.000
40.85000 220.000
41.06000 228.000
41.27000 209.000
41.48000 199.000
41.69000 208.000
41.90000 236.000
42.11000 221.000
42.32000 227.000
42.53000 218.000
42.74000 213.000
42.95000 213.000
43.16000 232.000
43.37000 210.000
43.58000 213.000
43.79000 187.000
44.00000 209.000
44.21000 199.000
44.42000 203.000
44.63000 191.000
44.84000 188.000
45.05000 203.000
45.26000 205.000
45.47000 205.000
45.68000 209.000
45.89000 215.000
46.10000 219.000
46.31000 193.000
46.52000 173.000
46.73000 209.000
46.94000 190.000
47.15000 213.000
47.36000 172.000
47.57000 186.000
47.78000 179.000
47.99000 174.000
48.20000 176.000
48.41000 191.000
48.62000 189.000
48.83000 181.000
49.04000 173.000
49.25000 158.000
49.46000 154.000
49.67000 169.000
49.88000 179.000
50.09000 160.000
50.30000 171.000
50.51000 165.000
50.72000 163.000
50.93000 171.000
51.14000 171.000
51.35000 166.000
51.56000 167.000
51.77000 147.000
51.98000 154.000
52.19000 166.000
52.40000 165.000
52.61000 163.000
52.82000 170.000
53.03000 161.000
53.24000 147.000
53.45000 158.000
53.66000 177.000
53.87000 147.000
54.08000 151.000
54.29000 160.000
54.50000 144.000
54.71000 153.000
54.92000 170.000
55.13000 156.000
55.34000 170.000
55.55000 170.000
55.76000 159.000
55.97000 164.000
56.18000 158.000
56.39000 158.000
56.60000 155.000
56.81000 172.000
57.02000 158.000
57.23000 155.000
57.44000 163.000
57.65000 158.000
57.86000 156.000
58.07000 159.000
58.28000 162.000
58.49000 170.000
58.70000 152.000
58.91000 148.000
59.12000 151.000
59.33000 138.000
59.54000 160.000
59.75000 148.000
59.96000 132.000
60.17000 151.000
60.38000 142.000
60.59000 165.000
60.80000 151.000
61.01000 131.000
61.22000 119.000
61.43000 134.000
61.64000 124.000
61.85000 138.000
61.98500 119.000

File: HSC070.xy
2.00000 4.000
2.21000 1.000
2.42000 3.000
2.63000 3.000
2.84000 2.000
3.05000 2.000
3.26000 41.000
3.47000 60.000
3.68000 80.000
3.89000 91.000
4.10000 100.000
4.31000 98.000
4.52000 101.000
4.73000 137.000
4.94000 139.000
5.15000 130.000
5.36000 134.000
5.57000 136.000
5.78000 136.000
5.99000 146.000
6.20000 137.000
6.41000 162.000
6.62000 163.000
6.83000 141.000
7.04000 147.000
7.25000 135.000
7.46000 159.000
7.67000 177.000
7.88000 160.000
8.09000 160.000
8.30000 177.000
8.51000 356.000
8.72000 2232.000
8.93000 240.000
9.14000 167.000
9.35000 167.000
9.56000 192.000
9.77000 183.000
9.98000 152.000
10.19000 176.000
10.40000 163.000
10.61000 191.000
10.82000 162.000
11.03000 173.000
11.24000 171.000
11.45000 170.000
11.66000 167.000
11.87000 175.000
12.08000 172.000
12.29000 161.000
12.50000 178.000
12.71000 209.000
12.92000 230.000
13.13000 1690.000
13.34000 176.000
13.55000 181.000
13.76000 173.000
13.97000 185.000
14.18000 198.000
14.39000 175.000
14.60000 205.000
14.81000 668.000
15.02000 222.000
15.23000 648.000
15.44000 186.000
15.65000 214.000
15.86000 308.000
16.07000 183.000
16.28000 188.000
16.49000 181.000
16.70000 173.000
16.91000 187.000
17.12000 198.000
17.33000 318.000
17.54000 1276.000
17.75000 1284.000
17.96000 357.000
18.17000 204.000
18.38000 189.000
18.59000 204.000
18.80000 192.000
19.01000 939.000
19.22000 215.000
19.43000 203.000
19.64000 192.000
19.85000 183.000
20.06000 236.000
20.27000 244.000
20.48000 192.000
20.69000 226.000
20.90000 198.000
21.11000 196.000
21.32000 216.000
21.53000 473.000
21.74000 532.000
21.95000 403.000
22.16000 376.000
22.37000 208.000
22.58000 203.000
22.79000 209.000
23.00000 178.000
23.21000 238.000
23.42000 643.000
23.63000 241.000
23.84000 257.000
24.05000 1097.000
24.26000 265.000
24.47000 2131.000
24.68000 261.000
24.89000 249.000
25.10000 1512.000
25.31000 430.000
25.52000 1251.000
25.73000 1328.000
25.94000 271.000
26.15000 3773.000
26.36000 399.000
26.57000 845.000
26.78000 312.000
26.99000 393.000
27.20000 410.000
27.41000 279.000
27.62000 312.000
27.83000 266.000
28.04000 3323.000
28.25000 246.000
28.46000 271.000
28.67000 284.000
28.88000 1541.000
29.09000 268.000
29.30000 302.000
29.51000 201.000
29.72000 768.000
29.93000 420.000
30.14000 208.000
30.35000 467.000
30.56000 235.000
30.77000 514.000
30.98000 226.000
31.19000 307.000
31.40000 852.000
31.61000 739.000
31.82000 287.000
32.03000 299.000
32.24000 159.000
32.45000 185.000
32.66000 193.000
32.87000 167.000
33.08000 182.000
33.29000 187.000
33.50000 257.000
33.71000 215.000
33.92000 266.000
34.13000 180.000
34.34000 300.000
34.55000 873.000
34.76000 220.000
34.97000 455.000
35.18000 390.000
35.39000 193.000
35.60000 454.000
35.81000 690.000
36.02000 273.000
36.23000 990.000
36.44000 421.000
36.65000 300.000
36.86000 353.000
37.07000 338.000
37.28000 203.000
37.49000 215.000
37.70000 341.000
37.91000 185.000
38.12000 199.000
38.33000 1004.000
38.54000 182.000
38.75000 178.000
38.96000 383.000
39.17000 194.000
39.38000 137.000
39.59000 183.000
39.80000 183.000
40.01000 165.000
40.22000 418.000
40.43000 333.000
40.64000 399.000
40.85000 161.000
41.06000 243.000
41.27000 145.000
41.48000 138.000
41.69000 163.000
41.90000 198.000
42.11000 288.000
42.32000 220.000
42.53000 460.000
42.74000 441.000
42.95000 220.000
43.16000 167.000
43.37000 226.000
43.58000 360.000
43.79000 224.000
44.00000 381.000
44.21000 354.000
44.42000 248.000
44.63000 189.000
44.84000 523.000
45.05000 369.000
45.26000 235.000
45.47000 356.000
45.68000 421.000
45.89000 145.000
46.10000 160.000
46.31000 209.000
46.52000 163.000
46.73000 200.000
46.94000 349.000
47.15000 362.000
47.36000 282.000
47.57000 957.000
47.78000 401.000
47.99000 519.000
48.20000 421.000
48.41000 245.000
48.62000 209.000
48.83000 209.000
49.04000 399.000
49.25000 175.000
49.46000 248.000
49.67000 181.000
49.88000 160.000
50.09000 286.000
50.30000 389.000
50.51000 174.000
50.72000 162.000
50.93000 150.000
51.14000 150.000
51.35000 170.000
51.56000 343.000
51.77000 342.000
51.98000 219.000
52.19000 245.000
52.40000 228.000
52.61000 188.000
52.82000 196.000
53.03000 504.000
53.24000 189.000
53.45000 133.000
53.66000 187.000
53.87000 164.000
54.08000 146.000
54.29000 250.000
54.50000 338.000
54.71000 208.000
54.92000 402.000
55.13000 251.000
55.34000 254.000
55.55000 435.000
55.76000 230.000
55.97000 221.000
56.18000 327.000
56.39000 186.000
56.60000 187.000
56.81000 163.000
57.02000 132.000
57.23000 267.000
57.44000 165.000
57.65000 161.000
57.86000 173.000
58.07000 173.000
58.28000 141.000
58.49000 138.000
58.70000 133.000
58.91000 219.000
59.12000 213.000
59.33000 210.000
59.54000 235.000
59.75000 163.000
59.96000 188.000
60.17000 201.000
60.38000 168.000
60.59000 311.000
60.80000 151.000
61.01000 170.000
61.22000 192.000
61.43000 183.000
61.64000 163.000
61.85000 163.000
61.98500 193.000