Folder: phd-thesis/ISoD/xrd_data (part 5)

File: HSC011_Kap_nicht_hochgenug_gefuelllt.xy
2.00000 1979.000
2.21000 1365.000
2.42000 1095.000
2.63000 861.000
2.84000 692.000
3.05000 588.000
3.26000 496.000
3.47000 457.000
3.68000 420.000
3.89000 373.000
4.10000 328.000
4.31000 284.000
4.52000 317.000
4.73000 292.000
4.94000 278.000
5.15000 283.000
5.36000 269.000
5.57000 253.000
5.78000 269.000
5.99000 255.000
6.20000 268.000
6.41000 236.000
6.62000 251.000
6.83000 243.000
7.04000 233.000
7.25000 235.000
7.46000 244.000
7.67000 234.000
7.88000 224.000
8.09000 222.000
8.30000 215.000
8.51000 241.000
8.72000 244.000
8.93000 222.000
9.14000 229.000
9.35000 211.000
9.56000 243.000
9.77000 206.000
9.98000 234.000
10.19000 216.000
10.40000 221.000
10.61000 243.000
10.82000 210.000
11.03000 230.000
11.24000 240.000
11.45000 247.000
11.66000 267.000
11.87000 322.000
12.08000 339.000
12.29000 329.000
12.50000 296.000
12.71000 272.000
12.92000 275.000
13.13000 258.000
13.34000 241.000
13.55000 235.000
13.76000 246.000
13.97000 232.000
14.18000 242.000
14.39000 220.000
14.60000 247.000
14.81000 230.000
15.02000 234.000
15.23000 239.000
15.44000 229.000
15.65000 226.000
15.86000 255.000
16.07000 256.000
16.28000 240.000
16.49000 266.000
16.70000 237.000
16.91000 258.000
17.12000 228.000
17.33000 242.000
17.54000 261.000
17.75000 284.000
17.96000 264.000
18.17000 272.000
18.38000 266.000
18.59000 283.000
18.80000 274.000
19.01000 267.000
19.22000 278.000
19.43000 289.000
19.64000 291.000
19.85000 322.000
20.06000 304.000
20.27000 288.000
20.48000 309.000
20.69000 332.000
20.90000 321.000
21.11000 310.000
21.32000 323.000
21.53000 328.000
21.74000 314.000
21.95000 280.000
22.16000 322.000
22.37000 326.000
22.58000 331.000
22.79000 340.000
23.00000 331.000
23.21000 338.000
23.42000 334.000
23.63000 351.000
23.84000 372.000
24.05000 375.000
24.26000 333.000
24.47000 350.000
24.68000 377.000
24.89000 357.000
25.10000 364.000
25.31000 372.000
25.52000 370.000
25.73000 332.000
25.94000 375.000
26.15000 383.000
26.36000 362.000
26.57000 412.000
26.78000 416.000
26.99000 475.000
27.20000 488.000
27.41000 599.000
27.62000 611.000
27.83000 497.000
28.04000 437.000
28.25000 394.000
28.46000 387.000
28.67000 324.000
28.88000 336.000
29.09000 311.000
29.30000 308.000
29.51000 313.000
29.72000 280.000
29.93000 300.000
30.14000 295.000
30.35000 264.000
30.56000 258.000
30.77000 253.000
30.98000 271.000
31.19000 256.000
31.40000 259.000
31.61000 276.000
31.82000 269.000
32.03000 274.000
32.24000 265.000
32.45000 243.000
32.66000 269.000
32.87000 220.000
33.08000 205.000
33.29000 218.000
33.50000 233.000
33.71000 196.000
33.92000 220.000
34.13000 200.000
34.34000 191.000
34.55000 177.000
34.76000 190.000
34.97000 189.000
35.18000 186.000
35.39000 203.000
35.60000 175.000
35.81000 184.000
36.02000 161.000
36.23000 172.000
36.44000 178.000
36.65000 175.000
36.86000 172.000
37.07000 178.000
37.28000 145.000
37.49000 149.000
37.70000 164.000
37.91000 155.000
38.12000 150.000
38.33000 153.000
38.54000 142.000
38.75000 158.000
38.96000 147.000
39.17000 144.000
39.38000 138.000
39.59000 157.000
39.80000 142.000
40.01000 138.000
40.22000 134.000
40.43000 160.000
40.64000 144.000
40.85000 142.000
41.06000 139.000
41.27000 144.000
41.48000 153.000
41.69000 144.000
41.90000 170.000
42.11000 151.000
42.32000 149.000
42.53000 176.000
42.74000 161.000
42.95000 176.000
43.16000 137.000
43.37000 167.000
43.58000 148.000
43.79000 136.000
44.00000 153.000
44.21000 129.000
44.42000 146.000
44.63000 132.000
44.84000 149.000
45.05000 140.000
45.26000 123.000
45.47000 125.000
45.68000 141.000
45.89000 116.000
46.10000 146.000
46.31000 149.000
46.52000 135.000
46.73000 116.000
46.94000 127.000
47.15000 130.000
47.36000 122.000
47.57000 132.000
47.78000 125.000
47.99000 127.000
48.20000 127.000
48.41000 111.000
48.62000 122.000
48.83000 129.000
49.04000 118.000
49.25000 119.000
49.46000 116.000
49.67000 105.000
49.88000 121.000
50.09000 124.000
50.30000 108.000
50.51000 107.000
50.72000 111.000
50.93000 107.000
51.14000 116.000
51.35000 112.000
51.56000 113.000
51.77000 99.000
51.98000 101.000
52.19000 108.000
52.40000 108.000
52.61000 112.000
52.82000 111.000
53.03000 119.000
53.24000 97.000
53.45000 100.000
53.66000 118.000
53.87000 112.000
54.08000 112.000
54.29000 114.000
54.50000 114.000
54.71000 120.000
54.92000 101.000
55.13000 121.000
55.34000 102.000
55.55000 119.000
55.76000 111.000
55.97000 102.000
56.18000 122.000
56.39000 106.000
56.60000 114.000
56.81000 105.000
57.02000 125.000
57.23000 140.000
57.44000 111.000
57.65000 105.000
57.86000 109.000
58.07000 108.000
58.28000 101.000
58.49000 117.000
58.70000 113.000
58.91000 113.000
59.12000 120.000
59.33000 90.000
59.54000 103.000
59.75000 92.000
59.96000 110.000
60.17000 108.000
60.38000 81.000
60.59000 112.000
60.80000 94.000
61.01000 110.000
61.22000 96.000
61.43000 107.000
61.64000 104.000
61.85000 101.000
61.98500 105.000

File: HSC018.xy
2.00000 3.000
2.21000 1.000
2.42000 0.000
2.63000 64.000
2.84000 83.000
3.05000 84.000
3.26000 94.000
3.47000 80.000
3.68000 101.000
3.89000 84.000
4.10000 109.000
4.31000 96.000
4.52000 96.000
4.73000 87.000
4.94000 110.000
5.15000 102.000
5.36000 112.000
5.57000 93.000
5.78000 102.000
5.99000 109.000
6.20000 111.000
6.41000 126.000
6.62000 124.000
6.83000 108.000
7.04000 132.000
7.25000 115.000
7.46000 110.000
7.67000 138.000
7.88000 125.000
8.09000 105.000
8.30000 120.000
8.51000 136.000
8.72000 149.000
8.93000 129.000
9.14000 124.000
9.35000 124.000
9.56000 123.000
9.77000 119.000
9.98000 197.000
10.19000 158.000
10.40000 148.000
10.61000 160.000
10.82000 130.000
11.03000 119.000
11.24000 131.000
11.45000 105.000
11.66000 118.000
11.87000 135.000
12.08000 174.000
12.29000 148.000
12.50000 132.000
12.71000 124.000
12.92000 116.000
13.13000 153.000
13.34000 291.000
13.55000 173.000
13.76000 123.000
13.97000 137.000
14.18000 131.000
14.39000 128.000
14.60000 135.000
14.81000 134.000
15.02000 136.000
15.23000 119.000
15.44000 145.000
15.65000 126.000
15.86000 174.000
16.07000 138.000
16.28000 120.000
16.49000 151.000
16.70000 135.000
16.91000 149.000
17.12000 132.000
17.33000 139.000
17.54000 142.000
17.75000 412.000
17.96000 240.000
18.17000 193.000
18.38000 160.000
18.59000 130.000
18.80000 136.000
19.01000 155.000
19.22000 142.000
19.43000 128.000
19.64000 138.000
19.85000 154.000
20.06000 194.000
20.27000 135.000
20.48000 132.000
20.69000 274.000
20.90000 143.000
21.11000 169.000
21.32000 156.000
21.53000 148.000
21.74000 299.000
21.95000 345.000
22.16000 181.000
22.37000 167.000
22.58000 169.000
22.79000 155.000
23.00000 172.000
23.21000 242.000
23.42000 159.000
23.63000 620.000
23.84000 180.000
24.05000 201.000
24.26000 763.000
24.47000 199.000
24.68000 179.000
24.89000 281.000
25.10000 266.000
25.31000 171.000
25.52000 443.000
25.73000 420.000
25.94000 176.000
26.15000 157.000
26.36000 291.000
26.57000 1840.000
26.78000 294.000
26.99000 1233.000
27.20000 653.000
27.41000 194.000
27.62000 170.000
27.83000 182.000
28.04000 314.000
28.25000 155.000
28.46000 269.000
28.67000 262.000
28.88000 283.000
29.09000 204.000
29.30000 389.000
29.51000 269.000
29.72000 187.000
29.93000 276.000
30.14000 515.000
30.35000 410.000
30.56000 223.000
30.77000 600.000
30.98000 313.000
31.19000 517.000
31.40000 529.000
31.61000 212.000
31.82000 216.000
32.03000 288.000
32.24000 632.000
32.45000 1707.000
32.66000 239.000
32.87000 518.000
33.08000 170.000
33.29000 134.000
33.50000 198.000
33.71000 367.000
33.92000 416.000
34.13000 220.000
34.34000 322.000
34.55000 495.000
34.76000 156.000
34.97000 245.000
35.18000 159.000
35.39000 145.000
35.60000 138.000
35.81000 163.000
36.02000 155.000
36.23000 187.000
36.44000 220.000
36.65000 124.000
36.86000 163.000
37.07000 1001.000
37.28000 526.000
37.49000 269.000
37.70000 589.000
37.91000 155.000
38.12000 520.000
38.33000 214.000
38.54000 956.000
38.75000 279.000
38.96000 141.000
39.17000 291.000
39.38000 709.000
39.59000 394.000
39.80000 156.000
40.01000 172.000
40.22000 161.000
40.43000 230.000
40.64000 385.000
40.85000 344.000
41.06000 245.000
41.27000 185.000
41.48000 594.000
41.69000 156.000
41.90000 137.000
42.11000 203.000
42.32000 158.000
42.53000 133.000
42.74000 198.000
42.95000 167.000
43.16000 346.000
43.37000 106.000
43.58000 124.000
43.79000 112.000
44.00000 525.000
44.21000 137.000
44.42000 397.000
44.63000 133.000
44.84000 170.000
45.05000 472.000
45.26000 271.000
45.47000 132.000
45.68000 149.000
45.89000 186.000
46.10000 224.000
46.31000 158.000
46.52000 239.000
46.73000 118.000
46.94000 148.000
47.15000 140.000
47.36000 152.000
47.57000 631.000
47.78000 100.000
47.99000 174.000
48.20000 96.000
48.41000 126.000
48.62000 211.000
48.83000 207.000
49.04000 119.000
49.25000 124.000
49.46000 130.000
49.67000 119.000
49.88000 169.000
50.09000 116.000
50.30000 131.000
50.51000 139.000
50.72000 157.000
50.93000 264.000
51.14000 172.000
51.35000 579.000
51.56000 311.000
51.77000 173.000
51.98000 132.000
52.19000 171.000
52.40000 129.000
52.61000 122.000
52.82000 151.000
53.03000 164.000
53.24000 148.000
53.45000 202.000
53.66000 169.000
53.87000 137.000
54.08000 125.000
54.29000 215.000
54.50000 120.000
54.71000 148.000
54.92000 164.000
55.13000 110.000
55.34000 159.000
55.55000 121.000
55.76000 149.000
55.97000 166.000
56.18000 125.000
56.39000 103.000
56.60000 172.000
56.81000 180.000
57.02000 151.000
57.23000 127.000
57.44000 191.000
57.65000 142.000
57.86000 129.000
58.07000 127.000
58.28000 150.000
58.49000 113.000
58.70000 172.000
58.91000 133.000
59.12000 123.000
59.33000 103.000
59.54000 108.000
59.75000 144.000
59.96000 122.000
60.17000 152.000
60.38000 140.000
60.59000 162.000
60.80000 137.000
61.01000 131.000
61.22000 132.000
61.43000 152.000
61.64000 125.000
61.85000 131.000
61.98500 139.000

File: HSC023_ranges_combined.xy
2.0 920.0
2.21 734.0
2.42 635.0
2.63 527.0
2.84 467.0
3.05 420.0
3.26 440.0
3.47 425.0
3.68 407.0
3.89 427.0
4.1 443.0
4.31 390.0
4.52 412.0
4.73 396.0
4.94 388.0
5.15 405.0
5.36 415.0
5.57 396.0
5.78 424.0
5.99 403.0
6.2 385.0
6.41 422.0
6.62 407.0
6.83 387.0
7.04 417.0
7.25 428.0
7.46 409.0
7.67 385.0
7.88 406.0
8.09 416.0
8.3 427.0
8.51 409.0
8.72 397.0
8.93 397.0
9.14 404.0
9.35 385.0
9.56 398.0
9.77 350.0
9.98 358.0
10.19 391.0
10.4 426.0
10.61 385.0
10.82 395.0
11.03 373.0
11.24 407.0
11.45 392.0
11.66 418.0
11.87 381.0
12.08 388.0
12.29 408.0
12.5 368.0
12.71 397.0
12.92 399.0
13.13 396.0
13.34 358.0
13.55 373.0
13.76 379.0
13.97 364.0
14.18 389.0
14.39 404.0
14.6 366.0
14.81 376.0
15.02 372.0
15.23 366.0
15.44 412.0
15.65 381.0
15.86 383.0
16.07 414.0
16.28 387.0
16.49 406.0
16.7 410.0
16.91 399.0
17.12 417.0
17.33 397.0
17.54 456.0
17.75 387.0
17.96 428.0
18.17 421.0
18.38 413.0
18.59 414.0
18.8 434.0
19.01 449.0
19.22 450.0
19.43 466.0
19.64 447.0
19.85 479.0
20.06 458.0
20.27 449.0
20.48 481.0
20.69 502.0
20.9 491.0
21.11 494.0
21.32 504.0
21.53 519.0
21.74 483.0
21.95 495.0
22.16 537.0
22.37 534.0
22.58 517.0
22.79 545.0
23.0 517.0
23.21 537.0
23.42 559.0
23.63 531.0
23.84 566.0
24.05 583.0
24.26 563.0
24.47 569.0
24.68 598.0
24.89 624.0
25.1 621.0
25.31 564.0
25.52 628.0
25.73 631.0
25.94 643.0
26.15 623.0
26.36 664.0
26.57 667.0
26.78 700.0
26.99 695.0
27.2 657.0
27.41 649.0
27.62 679.0
27.83 640.0
28.04 603.0
28.25 572.0
28.46 535.0
28.67 548.0
28.88 534.0
29.09 505.0
29.3 499.0
29.51 452.0
29.72 483.0
29.93 462.0
30.14 455.0
30.35 429.0
30.56 446.0
30.77 395.0
30.98 406.0
31.19 371.0
31.4 405.0
31.61 414.0
31.82 382.0
32.03 375.0
32.24 373.0
32.45 357.0
32.66 363.0
32.87 336.0
33.08 340.0
33.29 311.0
33.5 340.0
33.71 345.0
33.92 321.0
34.13 323.0
34.34 324.0
34.55 285.0
34.76 286.0
34.97 288.0
35.18 287.0
35.39 291.0
35.6 257.0
35.81 280.0
36.02 286.0
36.23 271.0
36.44 269.0
36.65 257.0
36.86 284.0
37.07 280.0
37.28 269.0
37.49 253.0
37.7 247.0
37.91 253.0
38.12 226.0
38.33 253.0
38.54 252.0
38.75 222.0
38.96 231.0
39.17 224.0
39.38 225.0
39.59 232.0
39.8 228.0
40.01 218.0
40.22 223.0
40.43 234.0
40.64 221.0
40.85 230.0
41.06 228.0
41.27 230.0
41.48 220.0
41.69 216.0
41.9 211.0
42.11 219.0
42.32 226.0
42.53 232.0
42.74 207.0
42.95 204.0
43.16 216.0
43.37 199.0
43.58 191.0
43.79 191.0
44.0 224.0
44.21 210.0
44.42 215.0
44.63 213.0
44.84 227.0
45.05 190.0
45.26 212.0
45.47 208.0
45.68 204.0
45.89 215.0
46.1 200.0
46.31 200.0
46.52 196.0
46.73 178.0
46.94 177.0
47.15 211.0
47.36 162.0
47.57 195.0
47.78 186.0
47.99 187.0
48.2 170.0
48.41 185.0
48.62 178.0
48.83 179.0
49.04 174.0
49.25 188.0
49.46 184.0
49.67 173.0
49.88 149.0
50.09 167.0
50.3 170.0
50.51 173.0
50.72 167.0
50.93 158.0
51.14 161.0
51.35 163.0
51.56 166.0
51.77 165.0
51.98 169.0
52.19 164.0
52.4 157.0
52.61 163.0
52.82 156.0
53.03 165.0
53.24 168.0
53.45 157.0
53.66 162.0
53.87 148.0
54.08 164.0
54.29 166.0
54.5 155.0
54.71 157.0
54.92 159.0
55.13 168.0
55.34 174.0
55.55 158.0
55.76 146.0
55.97 148.0
56.18 157.0
56.39 146.0
56.6 146.0
56.81 158.0
57.02 146.0
57.23 152.0
57.44 159.0
57.65 162.0
57.86 151.0
58.07 167.0
58.28 148.0
58.49 143.0
58.7 169.0
58.91 148.0
59.12 145.0
59.33 167.0
59.54 145.0
59.75 149.0
59.96 131.0
60.17 132.0
60.38 133.0
60.59 148.0
60.8 135.0
61.01 148.0
61.22 142.0
61.43 162.0
61.64 139.0
61.85 153.0
61.985 144.0

File: HSC026_nach410C_range_1.xy
2.00000 748.000
2.21000 537.000
2.42000 420.000
2.63000 342.000
2.84000 302.000
3.05000 273.000
3.26000 241.000
3.47000 223.000
3.68000 207.000
3.89000 204.000
4.10000 180.000
4.31000 190.000
4.52000 177.000
4.73000 168.000
4.94000 188.000
5.15000 165.000
5.36000 184.000
5.57000 170.000
5.78000 181.000
5.99000 167.000
6.20000 180.000
6.41000 174.000
6.62000 172.000
6.83000 162.000
7.04000 191.000
7.25000 168.000
7.46000 186.000
7.67000 167.000
7.88000 192.000
8.09000 181.000
8.30000 195.000
8.51000 222.000
8.72000 231.000
8.93000 187.000
9.14000 189.000
9.35000 181.000
9.56000 187.000
9.77000 183.000
9.98000 188.000
10.19000 193.000
10.40000 182.000
10.61000 183.000
10.82000 194.000
11.03000 241.000
11.24000 278.000
11.45000 508.000
11.66000 574.000
11.87000 398.000
12.08000 252.000
12.29000 200.000
12.50000 174.000
12.71000 195.000
12.92000 234.000
13.13000 212.000
13.34000 211.000
13.55000 183.000
13.76000 179.000
13.97000 181.000
14.18000 161.000
14.39000 179.000
14.60000 162.000
14.81000 178.000
15.02000 166.000
15.23000 170.000
15.44000 200.000
15.65000 175.000
15.86000 179.000
16.07000 171.000
16.28000 198.000
16.49000 174.000
16.70000 160.000
16.91000 188.000
17.12000 164.000
17.33000 187.000
17.54000 178.000
17.75000 189.000
17.96000 184.000
18.17000 189.000
18.38000 208.000
18.59000 199.000
18.80000 191.000
19.01000 184.000
19.22000 229.000
19.43000 219.000
19.64000 219.000
19.85000 213.000
20.06000 215.000
20.27000 215.000
20.48000 209.000
20.69000 224.000
20.90000 216.000
21.11000 219.000
21.32000 214.000
21.53000 223.000
21.74000 233.000
21.95000 212.000
22.16000 216.000
22.37000 219.000
22.58000 225.000
22.79000 242.000
23.00000 244.000
23.21000 265.000
23.42000 267.000
23.63000 251.000
23.84000 252.000
24.05000 258.000
24.26000 280.000
24.47000 285.000
24.68000 314.000
24.89000 310.000
25.10000 375.000
25.31000 432.000
25.52000 561.000
25.73000 519.000
25.94000 360.000
26.15000 366.000
26.36000 331.000
26.57000 334.000
26.78000 379.000
26.99000 405.000
27.20000 540.000
27.41000 605.000
27.62000 542.000
27.83000 351.000
28.04000 277.000
28.25000 253.000
28.46000 258.000
28.67000 235.000
28.88000 209.000
29.09000 225.000
29.30000 212.000
29.51000 207.000
29.72000 217.000
29.93000 206.000
30.14000 223.000
30.35000 231.000
30.56000 227.000
30.77000 233.000
30.98000 178.000
31.19000 182.000
31.40000 183.000
31.61000 177.000
31.82000 177.000
32.03000 184.000
32.24000 176.000
32.45000 132.000
32.66000 157.000
32.87000 153.000
33.08000 139.000
33.29000 147.000
33.50000 155.000
33.71000 167.000
33.92000 129.000
34.13000 143.000
34.34000 125.000
34.55000 142.000
34.76000 155.000
34.97000 133.000
35.18000 120.000
35.39000 122.000
35.60000 136.000
35.81000 113.000
36.02000 99.000
36.23000 124.000
36.44000 118.000
36.65000 108.000
36.86000 99.000
37.07000 113.000
37.28000 114.000
37.49000 100.000
37.70000 95.000
37.91000 123.000
38.12000 97.000
38.33000 101.000
38.54000 99.000
38.75000 110.000
38.96000 120.000
39.17000 106.000
39.38000 99.000
39.59000 109.000
39.80000 116.000
40.01000 115.000
40.22000 118.000
40.43000 107.000
40.64000 119.000
40.85000 119.000
41.06000 135.000
41.27000 119.000
41.48000 113.000
41.69000 94.000
41.90000 96.000
42.11000 115.000
42.32000 117.000
42.53000 84.000
42.74000 98.000
42.95000 102.000
43.16000 110.000
43.37000 87.000
43.58000 118.000
43.79000 109.000
44.00000 103.000
44.21000 100.000
44.42000 95.000
44.63000 92.000
44.84000 98.000
45.05000 91.000
45.26000 99.000
45.47000 101.000
45.68000 98.000
45.89000 92.000
46.10000 111.000
46.31000 97.000
46.52000 97.000
46.73000 87.000
46.94000 101.000
47.15000 98.000
47.36000 83.000
47.57000 99.000
47.78000 93.000
47.99000 78.000
48.20000 94.000
48.41000 84.000
48.62000 86.000
48.83000 81.000
49.04000 79.000
49.25000 92.000
49.46000 90.000
49.67000 81.000
49.88000 81.000
50.09000 78.000
50.30000 82.000
50.51000 78.000
50.72000 100.000
50.93000 68.000
51.14000 77.000
51.35000 73.000
51.56000 74.000
51.77000 84.000
51.98000 87.000
52.19000 93.000
52.40000 87.000
52.61000 90.000
52.82000 81.000
53.03000 73.000
53.24000 88.000
53.45000 87.000
53.66000 87.000
53.87000 83.000
54.08000 71.000
54.29000 85.000
54.50000 88.000
54.71000 69.000
54.92000 77.000
55.13000 88.000
55.34000 73.000
55.55000 53.000
55.76000 82.000
55.97000 83.000
56.18000 75.000
56.39000 80.000
56.60000 84.000
56.81000 79.000
57.02000 60.000
57.23000 69.000
57.44000 76.000
57.65000 75.000
57.86000 66.000
58.07000 78.000
58.28000 70.000
58.49000 68.000
58.70000 75.000
58.91000 79.000
59.12000 76.000
59.33000 77.000
59.54000 79.000
59.75000 77.000
59.96000 79.000
60.17000 65.000
60.38000 84.000
60.59000 73.000
60.80000 55.000
61.01000 79.000
61.22000 73.000
61.43000 67.000
61.64000 58.000
61.85000 77.000
61.98500 71.000

File: HSC026_nach410C_range_2.xy
2.00000 712.000
2.21000 576.000
2.42000 423.000
2.63000 340.000
2.84000 303.000
3.05000 251.000
3.26000 225.000
3.47000 215.000
3.68000 204.000
3.89000 197.000
4.10000 194.000
4.31000 172.000
4.52000 176.000
4.73000 172.000
4.94000 174.000
5.15000 164.000
5.36000 180.000
5.57000 180.000
5.78000 201.000
5.99000 179.000
6.20000 165.000
6.41000 167.000
6.62000 173.000
6.83000 172.000
7.04000 157.000
7.25000 192.000
7.46000 169.000
7.67000 170.000
7.88000 173.000
8.09000 190.000
8.30000 191.000
8.51000 248.000
8.72000 261.000
8.93000 200.000
9.14000 179.000
9.35000 167.000
9.56000 166.000
9.77000 178.000
9.98000 215.000
10.19000 180.000
10.40000 202.000
10.61000 186.000
10.82000 186.000
11.03000 224.000
11.24000 299.000
11.45000 512.000
11.66000 575.000
11.87000 414.000
12.08000 256.000
12.29000 178.000
12.50000 178.000
12.71000 208.000
12.92000 259.000
13.13000 248.000
13.34000 194.000
13.55000 184.000
13.76000 195.000
13.97000 166.000
14.18000 164.000
14.39000 173.000
14.60000 153.000
14.81000 156.000
15.02000 163.000
15.23000 150.000
15.44000 162.000
15.65000 166.000
15.86000 174.000
16.07000 181.000
16.28000 188.000
16.49000 183.000
16.70000 165.000
16.91000 164.000
17.12000 175.000
17.33000 178.000
17.54000 170.000
17.75000 192.000
17.96000 176.000
18.17000 189.000
18.38000 174.000
18.59000 215.000
18.80000 175.000
19.01000 190.000
19.22000 191.000
19.43000 204.000
19.64000 201.000
19.85000 222.000
20.06000 219.000
20.27000 216.000
20.48000 226.000
20.69000 231.000
20.90000 200.000
21.11000 222.000
21.32000 214.000
21.53000 227.000
21.74000 226.000
21.95000 228.000
22.16000 227.000
22.37000 218.000
22.58000 226.000
22.79000 233.000
23.00000 233.000
23.21000 247.000
23.42000 247.000
23.63000 249.000
23.84000 275.000
24.05000 263.000
24.26000 278.000
24.47000 277.000
24.68000 290.000
24.89000 300.000
25.10000 397.000
25.31000 416.000
25.52000 573.000
25.73000 527.000
25.94000 355.000
26.15000 345.000
26.36000 346.000
26.57000 366.000
26.78000 373.000
26.99000 399.000
27.20000 504.000
27.41000 604.000
27.62000 564.000
27.83000 336.000
28.04000 272.000
28.25000 259.000
28.46000 256.000
28.67000 205.000
28.88000 224.000
29.09000 206.000
29.30000 211.000
29.51000 191.000
29.72000 214.000
29.93000 223.000
30.14000 227.000
30.35000 255.000
30.56000 212.000
30.77000 215.000
30.98000 196.000
31.19000 199.000
31.40000 186.000
31.61000 189.000
31.82000 162.000
32.03000 163.000
32.24000 160.000
32.45000 154.000
32.66000 152.000
32.87000 172.000
33.08000 161.000
33.29000 139.000
33.50000 151.000
33.71000 138.000
33.92000 147.000
34.13000 143.000
34.34000 133.000
34.55000 143.000
34.76000 135.000
34.97000 122.000
35.18000 148.000
35.39000 117.000
35.60000 150.000
35.81000 125.000
36.02000 139.000
36.23000 109.000
36.44000 126.000
36.65000 132.000
36.86000 117.000
37.07000 103.000
37.28000 105.000
37.49000 118.000
37.70000 102.000
37.91000 92.000
38.12000 101.000
38.33000 101.000
38.54000 93.000
38.75000 117.000
38.96000 115.000
39.17000 95.000
39.38000 105.000
39.59000 125.000
39.80000 112.000
40.01000 107.000
40.22000 111.000
40.43000 123.000
40.64000 121.000
40.85000 111.000
41.06000 123.000
41.27000 115.000
41.48000 103.000
41.69000 111.000
41.90000 105.000
42.11000 105.000
42.32000 96.000
42.53000 115.000
42.74000 97.000
42.95000 100.000
43.16000 99.000
43.37000 98.000
43.58000 109.000
43.79000 98.000
44.00000 110.000
44.21000 103.000
44.42000 91.000
44.63000 100.000
44.84000 97.000
45.05000 94.000
45.26000 90.000
45.47000 98.000
45.68000 90.000
45.89000 110.000
46.10000 107.000
46.31000 86.000
46.52000 99.000
46.73000 93.000
46.94000 91.000
47.15000 84.000
47.36000 88.000
47.57000 78.000
47.78000 91.000
47.99000 87.000
48.20000 83.000
48.41000 79.000
48.62000 90.000
48.83000 92.000
49.04000 94.000
49.25000 83.000
49.46000 79.000
49.67000 85.000
49.88000 82.000
50.09000 89.000
50.30000 96.000
50.51000 65.000
50.72000 83.000
50.93000 84.000
51.14000 81.000
51.35000 92.000
51.56000 87.000
51.77000 91.000
51.98000 87.000
52.19000 100.000
52.40000 76.000
52.61000 89.000
52.82000 80.000
53.03000 81.000
53.24000 83.000
53.45000 71.000
53.66000 89.000
53.87000 82.000
54.08000 89.000
54.29000 84.000
54.50000 74.000
54.71000 87.000
54.92000 85.000
55.13000 68.000
55.34000 87.000
55.55000 81.000
55.76000 84.000
55.97000 82.000
56.18000 76.000
56.39000 76.000
56.60000 92.000
56.81000 99.000
57.02000 76.000
57.23000 85.000
57.44000 73.000
57.65000 72.000
57.86000 93.000
58.07000 80.000
58.28000 76.000
58.49000 76.000
58.70000 83.000
58.91000 75.000
59.12000 71.000
59.33000 80.000
59.54000 74.000
59.75000 70.000
59.96000 76.000
60.17000 71.000
60.38000 73.000
60.59000 71.000
60.80000 73.000
61.01000 72.000
61.22000 87.000
61.43000 75.000
61.64000 80.000
61.85000 64.000
61.98500 63.000