Folder: phd-thesis/ISoD/xrd_data (part 21)

File: HSC208.xy
2.00000 2.000
2.21000 3.000
2.42000 1.000
2.63000 2.000
2.84000 129.000
3.05000 140.000
3.26000 140.000
3.47000 125.000
3.68000 140.000
3.89000 171.000
4.10000 152.000
4.31000 153.000
4.52000 156.000
4.73000 169.000
4.94000 177.000
5.15000 185.000
5.36000 182.000
5.57000 192.000
5.78000 184.000
5.99000 200.000
6.20000 195.000
6.41000 198.000
6.62000 199.000
6.83000 202.000
7.04000 190.000
7.25000 204.000
7.46000 217.000
7.67000 266.000
7.88000 483.000
8.09000 375.000
8.30000 296.000
8.51000 236.000
8.72000 244.000
8.93000 233.000
9.14000 251.000
9.35000 231.000
9.56000 261.000
9.77000 282.000
9.98000 345.000
10.19000 329.000
10.40000 263.000
10.61000 232.000
10.82000 236.000
11.03000 202.000
11.24000 229.000
11.45000 221.000
11.66000 228.000
11.87000 202.000
12.08000 193.000
12.29000 219.000
12.50000 224.000
12.71000 235.000
12.92000 206.000
13.13000 221.000
13.34000 199.000
13.55000 201.000
13.76000 197.000
13.97000 224.000
14.18000 199.000
14.39000 217.000
14.60000 201.000
14.81000 225.000
15.02000 258.000
15.23000 237.000
15.44000 220.000
15.65000 234.000
15.86000 208.000
16.07000 230.000
16.28000 217.000
16.49000 227.000
16.70000 213.000
16.91000 216.000
17.12000 213.000
17.33000 214.000
17.54000 227.000
17.75000 227.000
17.96000 209.000
18.17000 213.000
18.38000 244.000
18.59000 253.000
18.80000 214.000
19.01000 223.000
19.22000 208.000
19.43000 211.000
19.64000 232.000
19.85000 226.000
20.06000 236.000
20.27000 242.000
20.48000 240.000
20.69000 231.000
20.90000 245.000
21.11000 242.000
21.32000 255.000
21.53000 256.000
21.74000 283.000
21.95000 292.000
22.16000 316.000
22.37000 281.000
22.58000 260.000
22.79000 328.000
23.00000 366.000
23.21000 321.000
23.42000 313.000
23.63000 322.000
23.84000 329.000
24.05000 323.000
24.26000 330.000
24.47000 350.000
24.68000 371.000
24.89000 324.000
25.10000 334.000
25.31000 342.000
25.52000 362.000
25.73000 356.000
25.94000 401.000
26.15000 368.000
26.36000 393.000
26.57000 385.000
26.78000 411.000
26.99000 447.000
27.20000 479.000
27.41000 569.000
27.62000 851.000
27.83000 1021.000
28.04000 1054.000
28.25000 832.000
28.46000 640.000
28.67000 502.000
28.88000 459.000
29.09000 487.000
29.30000 419.000
29.51000 398.000
29.72000 374.000
29.93000 367.000
30.14000 331.000
30.35000 356.000
30.56000 350.000
30.77000 314.000
30.98000 314.000
31.19000 284.000
31.40000 302.000
31.61000 280.000
31.82000 317.000
32.03000 300.000
32.24000 278.000
32.45000 327.000
32.66000 286.000
32.87000 236.000
33.08000 230.000
33.29000 227.000
33.50000 216.000
33.71000 222.000
33.92000 210.000
34.13000 190.000
34.34000 238.000
34.55000 205.000
34.76000 195.000
34.97000 239.000
35.18000 254.000
35.39000 325.000
35.60000 292.000
35.81000 229.000
36.02000 226.000
36.23000 250.000
36.44000 254.000
36.65000 256.000
36.86000 245.000
37.07000 217.000
37.28000 243.000
37.49000 232.000
37.70000 247.000
37.91000 226.000
38.12000 188.000
38.33000 210.000
38.54000 211.000
38.75000 233.000
38.96000 204.000
39.17000 215.000
39.38000 193.000
39.59000 193.000
39.80000 180.000
40.01000 210.000
40.22000 214.000
40.43000 193.000
40.64000 194.000
40.85000 188.000
41.06000 168.000
41.27000 180.000
41.48000 190.000
41.69000 169.000
41.90000 151.000
42.11000 183.000
42.32000 170.000
42.53000 194.000
42.74000 196.000
42.95000 191.000
43.16000 229.000
43.37000 260.000
43.58000 213.000
43.79000 195.000
44.00000 176.000
44.21000 187.000
44.42000 217.000
44.63000 200.000
44.84000 176.000
45.05000 196.000
45.26000 177.000
45.47000 159.000
45.68000 180.000
45.89000 162.000
46.10000 163.000
46.31000 150.000
46.52000 165.000
46.73000 157.000
46.94000 163.000
47.15000 143.000
47.36000 160.000
47.57000 138.000
47.78000 155.000
47.99000 149.000
48.20000 143.000
48.41000 125.000
48.62000 144.000
48.83000 135.000
49.04000 125.000
49.25000 135.000
49.46000 132.000
49.67000 126.000
49.88000 132.000
50.09000 138.000
50.30000 130.000
50.51000 135.000
50.72000 145.000
50.93000 153.000
51.14000 144.000
51.35000 135.000
51.56000 138.000
51.77000 136.000
51.98000 135.000
52.19000 126.000
52.40000 124.000
52.61000 137.000
52.82000 124.000
53.03000 140.000
53.24000 135.000
53.45000 131.000
53.66000 121.000
53.87000 137.000
54.08000 129.000
54.29000 131.000
54.50000 122.000
54.71000 115.000
54.92000 114.000
55.13000 119.000
55.34000 115.000
55.55000 121.000
55.76000 119.000
55.97000 103.000
56.18000 118.000
56.39000 113.000
56.60000 110.000
56.81000 123.000
57.02000 117.000
57.23000 120.000
57.44000 118.000
57.65000 119.000
57.86000 148.000
58.07000 145.000
58.28000 131.000
58.49000 117.000
58.70000 145.000
58.91000 111.000
59.12000 114.000
59.33000 112.000
59.54000 126.000
59.75000 105.000
59.96000 114.000
60.17000 95.000
60.38000 112.000
60.59000 108.000
60.80000 112.000
61.01000 122.000
61.22000 107.000
61.43000 105.000
61.64000 108.000
61.85000 115.000
61.98500 102.000